#F U:\Beamline I20\!M2 and filters heat load\xop\Be-0p3mm.dat
#C Be - 0.3mm - normalized
#S 1 File written by xplot on Fri Mar 06 14:44:27 2009
#N 2
#L    Photon Energy [eV]  Intens after oe #1
50 0 
100 0 
150 0 
200 0 
250 2.10195E-044 
300 1.88895E-042 
350 1.66038E-040 
400 1.45916E-038 
450 1.28233E-036 
500 1.12692E-034 
550 9.90345E-033 
600 8.70326E-031 
650 7.64852E-029 
700 6.72158E-027 
750 5.90698E-025 
800 5.1911E-023 
850 4.562E-021 
900 4.00912E-019 
950 3.52327E-017 
1000 3.09627E-015 
1050 2.50809E-013 
1100 1.08243E-011 
1150 2.45588E-010 
1200 3.42765E-009 
1250 3.21267E-008 
1300 2.17046E-007 
1350 1.11982E-006 
1400 4.6229E-006 
1450 1.58607E-005 
1500 4.66429E-005 
1550 0.000119206 
1600 0.000273068 
1650 0.000569884 
1700 0.0010874 
1750 0.00194402 
1800 0.00324397 
1850 0.00515184 
1900 0.00778603 
1950 0.0112878 
2000 0.0158117 
2050 0.0214108 
2100 0.0281616 
2150 0.0361532 
2200 0.0454084 
2250 0.0559198 
2300 0.067558 
2350 0.0803169 
2400 0.0941491 
2450 0.108962 
2500 0.124654 
2550 0.141119 
2600 0.158245 
2650 0.175926 
2700 0.194057 
2750 0.21254 
2800 0.231281 
2850 0.250198 
2900 0.269213 
2950 0.288183 
3000 0.306972 
3050 0.325656 
3100 0.344193 
3150 0.362546 
3200 0.380683 
3250 0.398508 
3300 0.41579 
3350 0.432788 
3400 0.449497 
3450 0.465914 
3500 0.481669 
3550 0.497057 
3600 0.51215 
3650 0.526873 
3700 0.540914 
3750 0.554685 
3800 0.568191 
3850 0.580992 
3900 0.593508 
3950 0.605791 
4000 0.617395 
4050 0.628756 
4100 0.639858 
4150 0.650342 
4200 0.660664 
4250 0.670582 
4300 0.680111 
4350 0.689514 
4400 0.698317 
4450 0.707011 
4500 0.715334 
4550 0.723371 
4600 0.731224 
4650 0.738656 
4700 0.746042 
4750 0.752929 
4800 0.759783 
4850 0.76625 
4900 0.772617 
4950 0.778682 
5000 0.784606 
5050 0.790284 
5100 0.795805 
5150 0.801116 
5200 0.806271 
5250 0.811233 
5300 0.816055 
5350 0.820686 
5400 0.825207 
5450 0.829525 
5500 0.833775 
5550 0.837797 
5600 0.8418 
5650 0.845545 
5700 0.849306 
5750 0.852808 
5800 0.856306 
5850 0.859625 
5900 0.862876 
5950 0.866029 
6000 0.869049 
6050 0.872053 
6100 0.874856 
6150 0.877668 
6200 0.880325 
6250 0.882935 
6300 0.885483 
6350 0.887903 
6400 0.89033 
6450 0.892596 
6500 0.894846 
6550 0.897035 
6600 0.899119 
6650 0.901208 
6700 0.903168 
6750 0.905103 
6800 0.907009 
6850 0.908801 
6900 0.910596 
6950 0.912316 
7000 0.913978 
7050 0.915642 
7100 0.917199 
7150 0.91874 
7200 0.920271 
7250 0.921696 
7300 0.923124 
7350 0.924522 
7400 0.925842 
7450 0.927165 
7500 0.928446 
7550 0.929669 
7600 0.930894 
7650 0.932073 
7700 0.933205 
7750 0.934338 
7800 0.935428 
7850 0.936476 
7900 0.937525 
7950 0.938537 
8000 0.939507 
8050 0.940477 
8100 0.941421 
8150 0.942318 
8200 0.943216 
8250 0.9441 
8300 0.94493 
8350 0.94576 
8400 0.946591 
8450 0.94736 
8500 0.948128 
8550 0.948896 
8600 0.949623 
8650 0.950334 
8700 0.951044 
8750 0.951736 
8800 0.952393 
8850 0.953049 
8900 0.953707 
8950 0.954317 
9000 0.954924 
9050 0.955532 
9100 0.956119 
9150 0.95668 
9200 0.957242 
9250 0.957804 
9300 0.958327 
9350 0.958846 
9400 0.959366 
9450 0.959874 
9500 0.960354 
9550 0.960834 
9600 0.961314 
9650 0.961773 
9700 0.962216 
9750 0.96266 
9800 0.963104 
9850 0.96352 
9900 0.96393 
9950 0.964341 
10000 0.964751 
10050 0.965131 
10100 0.96551 
10150 0.96589 
10200 0.966267 
10250 0.966617 
10300 0.966968 
10350 0.967318 
10400 0.967667 
10450 0.967991 
10500 0.968315 
10550 0.968639 
10600 0.968963 
10650 0.969263 
10700 0.969562 
10750 0.969862 
10800 0.970162 
10850 0.970441 
10900 0.970718 
10950 0.970996 
11000 0.971273 
11050 0.971536 
11100 0.971792 
11150 0.972048 
11200 0.972304 
11250 0.972553 
11300 0.97279 
11350 0.973027 
11400 0.973264 
11450 0.973501 
11500 0.97372 
11550 0.973939 
11600 0.974158 
11650 0.974377 
11700 0.974588 
11750 0.97479 
11800 0.974993 
11850 0.975195 
11900 0.975397 
11950 0.975586 
12000 0.975773 
12050 0.97596 
12100 0.976147 
12150 0.97633 
12200 0.976503 
12250 0.976676 
12300 0.976849 
12350 0.977022 
12400 0.977188 
12450 0.977348 
12500 0.977508 
12550 0.977668 
12600 0.977828 
12650 0.97798 
12700 0.978128 
12750 0.978276 
12800 0.978424 
12850 0.978572 
12900 0.978711 
12950 0.978848 
13000 0.978985 
13050 0.979122 
13100 0.979258 
13150 0.979388 
13200 0.979514 
13250 0.979641 
13300 0.979767 
13350 0.979894 
13400 0.980015 
13450 0.980132 
13500 0.980249 
13550 0.980366 
13600 0.980483 
13650 0.980597 
13700 0.980705 
13750 0.980813 
13800 0.980921 
13850 0.98103 
13900 0.981138 
13950 0.981238 
14000 0.981338 
14050 0.981438 
14100 0.981538 
14150 0.981638 
14200 0.981734 
14250 0.981827 
14300 0.981919 
14350 0.982012 
14400 0.982105 
14450 0.982197 
14500 0.982283 
14550 0.982368 
14600 0.982454 
14650 0.98254 
14700 0.982626 
14750 0.982709 
14800 0.982788 
14850 0.982868 
14900 0.982947 
14950 0.983027 
15000 0.983106 
15050 0.983181 
15100 0.983255 
15150 0.983328 
15200 0.983402 
15250 0.983475 
15300 0.983549 
15350 0.983618 
15400 0.983686 
15450 0.983754 
15500 0.983822 
15550 0.98389 
15600 0.983959 
15650 0.984023 
15700 0.984086 
15750 0.984149 
15800 0.984212 
15850 0.984275 
15900 0.984338 
15950 0.984398 
16000 0.984456 
16050 0.984514 
16100 0.984573 
16150 0.984631 
16200 0.98469 
16250 0.984746 
16300 0.9848 
16350 0.984854 
16400 0.984908 
16450 0.984963 
16500 0.985017 
16550 0.98507 
16600 0.985121 
16650 0.985171 
16700 0.985221 
16750 0.985271 
16800 0.985321 
16850 0.985371 
16900 0.985419 
16950 0.985466 
17000 0.985512 
17050 0.985559 
17100 0.985605 
17150 0.985651 
17200 0.985698 
17250 0.985741 
17300 0.985784 
17350 0.985827 
17400 0.98587 
17450 0.985913 
17500 0.985956 
17550 0.985999 
17600 0.986039 
17650 0.986079 
17700 0.986118 
17750 0.986158 
17800 0.986198 
17850 0.986238 
17900 0.986277 
17950 0.986314 
18000 0.986351 
18050 0.986388 
18100 0.986425 
18150 0.986463 
18200 0.9865 
18250 0.986535 
18300 0.98657 
18350 0.986604 
18400 0.986639 
18450 0.986673 
18500 0.986708 
18550 0.986742 
18600 0.986776 
18650 0.986808 
18700 0.98684 
18750 0.986871 
18800 0.986903 
18850 0.986935 
18900 0.986967 
18950 0.986999 
19000 0.987029 
19050 0.987059 
19100 0.987088 
19150 0.987118 
19200 0.987148 
19250 0.987177 
19300 0.987207 
19350 0.987235 
19400 0.987263 
19450 0.98729 
19500 0.987318 
19550 0.987346 
19600 0.987373 
19650 0.987401 
19700 0.987428 
19750 0.987454 
19800 0.987479 
19850 0.987505 
19900 0.987531 
19950 0.987556 
20000 0.987582 
20050 0.987607 
20100 0.987632 
20150 0.987656 
20200 0.98768 
20250 0.987704 
20300 0.987728 
20350 0.987751 
20400 0.987775 
20450 0.987799 
20500 0.987822 
20550 0.987844 
20600 0.987866 
20650 0.987889 
20700 0.987911 
20750 0.987933 
20800 0.987955 
20850 0.987977 
20900 0.987999 
20950 0.988019 
21000 0.98804 
21050 0.98806 
21100 0.988081 
21150 0.988102 
21200 0.988122 
21250 0.988143 
21300 0.988163 
21350 0.988182 
21400 0.988201 
21450 0.988221 
21500 0.98824 
21550 0.988259 
21600 0.988278 
21650 0.988298 
21700 0.988317 
21750 0.988335 
21800 0.988352 
21850 0.98837 
21900 0.988388 
21950 0.988406 
22000 0.988424 
22050 0.988442 
22100 0.98846 
22150 0.988477 
22200 0.988494 
22250 0.98851 
22300 0.988527 
22350 0.988544 
22400 0.98856 
22450 0.988577 
22500 0.988594 
22550 0.98861 
22600 0.988626 
22650 0.988642 
22700 0.988657 
22750 0.988673 
22800 0.988688 
22850 0.988704 
22900 0.988719 
22950 0.988735 
23000 0.98875 
23050 0.988765 
23100 0.988779 
23150 0.988794 
23200 0.988808 
23250 0.988823 
23300 0.988837 
23350 0.988852 
23400 0.988866 
23450 0.988881 
23500 0.988894 
23550 0.988908 
23600 0.988921 
23650 0.988935 
23700 0.988949 
23750 0.988962 
23800 0.988976 
23850 0.988989 
23900 0.989003 
23950 0.989015 
24000 0.989028 
24050 0.989041 
24100 0.989053 
24150 0.989066 
24200 0.989079 
24250 0.989091 
24300 0.989104 
24350 0.989117 
24400 0.989129 
24450 0.989141 
24500 0.989153 
24550 0.989164 
24600 0.989176 
24650 0.989188 
24700 0.9892 
24750 0.989212 
24800 0.989224 
24850 0.989235 
24900 0.989246 
24950 0.989258 
25000 0.989269 
25050 0.98928 
25100 0.989291 
25150 0.989302 
25200 0.989313 
25250 0.989324 
25300 0.989335 
25350 0.989346 
25400 0.989356 
25450 0.989367 
25500 0.989377 
25550 0.989387 
25600 0.989398 
25650 0.989408 
25700 0.989418 
25750 0.989429 
25800 0.989439 
25850 0.989449 
25900 0.989459 
25950 0.989469 
26000 0.989478 
26050 0.989488 
26100 0.989498 
26150 0.989507 
26200 0.989517 
26250 0.989527 
26300 0.989537 
26350 0.989546 
26400 0.989555 
26450 0.989564 
26500 0.989573 
26550 0.989583 
26600 0.989592 
26650 0.989601 
26700 0.98961 
26750 0.989619 
26800 0.989628 
26850 0.989637 
26900 0.989646 
26950 0.989654 
27000 0.989663 
27050 0.989671 
27100 0.98968 
27150 0.989688 
27200 0.989697 
27250 0.989706 
27300 0.989714 
27350 0.989723 
27400 0.989731 
27450 0.989739 
27500 0.989747 
27550 0.989755 
27600 0.989763 
27650 0.989771 
27700 0.989779 
27750 0.989787 
27800 0.989795 
27850 0.989803 
27900 0.989811 
27950 0.989819 
28000 0.989826 
28050 0.989834 
28100 0.989841 
28150 0.989849 
28200 0.989856 
28250 0.989864 
28300 0.989871 
28350 0.989879 
28400 0.989887 
28450 0.989894 
28500 0.989901 
28550 0.989908 
28600 0.989915 
28650 0.989922 
28700 0.989929 
28750 0.989937 
28800 0.989944 
28850 0.989951 
28900 0.989958 
28950 0.989965 
29000 0.989972 
29050 0.989979 
29100 0.989985 
29150 0.989992 
29200 0.989999 
29250 0.990005 
29300 0.990012 
29350 0.990019 
29400 0.990026 
29450 0.990032 
29500 0.990039 
29550 0.990046 
29600 0.990052 
29650 0.990058 
29700 0.990065 
29750 0.990071 
29800 0.990077 
29850 0.990083 
29900 0.99009 
29950 0.990096 
30000 0.990102 
30050 0.990109 
30100 0.990115 
30150 0.990121 
30200 0.990127 
30250 0.990133 
30300 0.990139 
30350 0.990145 
30400 0.990151 
30450 0.990157 
30500 0.990163 
30550 0.990169 
30600 0.990175 
30650 0.99018 
30700 0.990186 
30750 0.990192 
30800 0.990198 
30850 0.990203 
30900 0.990209 
30950 0.990215 
31000 0.99022 
31050 0.990226 
31100 0.990232 
31150 0.990237 
31200 0.990243 
31250 0.990248 
31300 0.990254 
31350 0.990259 
31400 0.990265 
31450 0.99027 
31500 0.990275 
31550 0.990281 
31600 0.990286 
31650 0.990291 
31700 0.990296 
31750 0.990302 
31800 0.990307 
31850 0.990312 
31900 0.990318 
31950 0.990323 
32000 0.990328 
32050 0.990333 
32100 0.990338 
32150 0.990343 
32200 0.990348 
32250 0.990353 
32300 0.990358 
32350 0.990363 
32400 0.990368 
32450 0.990373 
32500 0.990378 
32550 0.990383 
32600 0.990388 
32650 0.990393 
32700 0.990397 
32750 0.990402 
32800 0.990407 
32850 0.990412 
32900 0.990416 
32950 0.990421 
33000 0.990426 
33050 0.990431 
33100 0.990435 
33150 0.99044 
33200 0.990445 
33250 0.990449 
33300 0.990454 
33350 0.990458 
33400 0.990463 
33450 0.990467 
33500 0.990472 
33550 0.990476 
33600 0.990481 
33650 0.990485 
33700 0.99049 
33750 0.990494 
33800 0.990499 
33850 0.990503 
33900 0.990508 
33950 0.990512 
34000 0.990516 
34050 0.99052 
34100 0.990525 
34150 0.990529 
34200 0.990533 
34250 0.990538 
34300 0.990542 
34350 0.990546 
34400 0.99055 
34450 0.990555 
34500 0.990559 
34550 0.990563 
34600 0.990567 
34650 0.990571 
34700 0.990575 
34750 0.990579 
34800 0.990583 
34850 0.990587 
34900 0.990591 
34950 0.990595 
35000 0.9906 
35050 0.990604 
35100 0.990608 
35150 0.990612 
35200 0.990616 
35250 0.99062 
35300 0.990623 
35350 0.990627 
35400 0.990631 
35450 0.990635 
35500 0.990639 
35550 0.990643 
35600 0.990647 
35650 0.99065 
35700 0.990654 
35750 0.990658 
35800 0.990662 
35850 0.990666 
35900 0.99067 
35950 0.990673 
36000 0.990677 
36050 0.990681 
36100 0.990684 
36150 0.990688 
36200 0.990692 
36250 0.990695 
36300 0.990699 
36350 0.990703 
36400 0.990707 
36450 0.99071 
36500 0.990714 
36550 0.990718 
36600 0.990721 
36650 0.990725 
36700 0.990728 
36750 0.990732 
36800 0.990735 
36850 0.990739 
36900 0.990742 
36950 0.990746 
37000 0.990749 
37050 0.990753 
37100 0.990756 
37150 0.99076 
37200 0.990763 
37250 0.990767 
37300 0.99077 
37350 0.990774 
37400 0.990777 
37450 0.99078 
37500 0.990784 
37550 0.990787 
37600 0.99079 
37650 0.990794 
37700 0.990797 
37750 0.9908 
37800 0.990804 
37850 0.990807 
37900 0.990811 
37950 0.990814 
38000 0.990817 
38050 0.990821 
38100 0.990824 
38150 0.990827 
38200 0.99083 
38250 0.990833 
38300 0.990837 
38350 0.99084 
38400 0.990843 
38450 0.990846 
38500 0.990849 
38550 0.990853 
38600 0.990856 
38650 0.990859 
38700 0.990862 
38750 0.990865 
38800 0.990869 
38850 0.990872 
38900 0.990875 
38950 0.990878 
39000 0.990881 
39050 0.990884 
39100 0.990887 
39150 0.99089 
39200 0.990893 
39250 0.990896 
39300 0.990899 
39350 0.990902 
39400 0.990905 
39450 0.990908 
39500 0.990911 
39550 0.990915 
39600 0.990917 
39650 0.99092 
39700 0.990923 
39750 0.990926 
39800 0.990929 
39850 0.990932 
39900 0.990935 
39950 0.990938 
40000 0.990941 
40050 0.990944 
40100 0.990947 
40150 0.99095 
40200 0.990953 
40250 0.990956 
40300 0.990959 
40350 0.990961 
40400 0.990964 
40450 0.990967 
40500 0.99097 
40550 0.990973 
40600 0.990976 
40650 0.990978 
40700 0.990981 
40750 0.990984 
40800 0.990987 
40850 0.99099 
40900 0.990992 
40950 0.990995 
41000 0.990998 
41050 0.991001 
41100 0.991004 
41150 0.991006 
41200 0.991009 
41250 0.991012 
41300 0.991015 
41350 0.991017 
41400 0.99102 
41450 0.991023 
41500 0.991025 
41550 0.991028 
41600 0.991031 
41650 0.991034 
41700 0.991036 
41750 0.991039 
41800 0.991042 
41850 0.991044 
41900 0.991047 
41950 0.99105 
42000 0.991052 
42050 0.991055 
42100 0.991058 
42150 0.99106 
42200 0.991063 
42250 0.991065 
42300 0.991068 
42350 0.991071 
42400 0.991073 
42450 0.991076 
42500 0.991078 
42550 0.991081 
42600 0.991084 
42650 0.991086 
42700 0.991089 
42750 0.991091 
42800 0.991094 
42850 0.991096 
42900 0.991099 
42950 0.991101 
43000 0.991104 
43050 0.991106 
43100 0.991109 
43150 0.991111 
43200 0.991114 
43250 0.991116 
43300 0.991119 
43350 0.991121 
43400 0.991124 
43450 0.991126 
43500 0.991129 
43550 0.991131 
43600 0.991134 
43650 0.991136 
43700 0.991139 
43750 0.991141 
43800 0.991144 
43850 0.991146 
43900 0.991148 
43950 0.991151 
44000 0.991153 
44050 0.991156 
44100 0.991158 
44150 0.99116 
44200 0.991163 
44250 0.991165 
44300 0.991168 
44350 0.99117 
44400 0.991173 
44450 0.991175 
44500 0.991177 
44550 0.99118 
44600 0.991182 
44650 0.991184 
44700 0.991186 
44750 0.991189 
44800 0.991191 
44850 0.991194 
44900 0.991196 
44950 0.991198 
45000 0.991201 
45050 0.991203 
45100 0.991205 
45150 0.991207 
45200 0.99121 
45250 0.991212 
45300 0.991214 
45350 0.991217 
45400 0.991219 
45450 0.991221 
45500 0.991223 
45550 0.991226 
45600 0.991228 
45650 0.99123 
45700 0.991232 
45750 0.991235 
45800 0.991237 
45850 0.991239 
45900 0.991241 
45950 0.991244 
46000 0.991246 
46050 0.991248 
46100 0.99125 
46150 0.991253 
46200 0.991255 
46250 0.991257 
46300 0.991259 
46350 0.991261 
46400 0.991264 
46450 0.991266 
46500 0.991268 
46550 0.99127 
46600 0.991272 
46650 0.991274 
46700 0.991277 
46750 0.991279 
46800 0.991281 
46850 0.991283 
46900 0.991285 
46950 0.991287 
47000 0.99129 
47050 0.991292 
47100 0.991294 
47150 0.991296 
47200 0.991298 
47250 0.9913 
47300 0.991302 
47350 0.991304 
47400 0.991306 
47450 0.991309 
47500 0.991311 
47550 0.991313 
47600 0.991315 
47650 0.991317 
47700 0.991319 
47750 0.991321 
47800 0.991323 
47850 0.991325 
47900 0.991327 
47950 0.99133 
48000 0.991332 
48050 0.991334 
48100 0.991336 
48150 0.991338 
48200 0.99134 
48250 0.991342 
48300 0.991344 
48350 0.991346 
48400 0.991348 
48450 0.99135 
48500 0.991352 
48550 0.991354 
48600 0.991356 
48650 0.991358 
48700 0.99136 
48750 0.991362 
48800 0.991364 
48850 0.991366 
48900 0.991368 
48950 0.99137 
49000 0.991372 
49050 0.991374 
49100 0.991376 
49150 0.991378 
49200 0.99138 
49250 0.991382 
49300 0.991384 
49350 0.991386 
49400 0.991388 
49450 0.99139 
49500 0.991392 
49550 0.991394 
49600 0.991396 
49650 0.991398 
49700 0.9914 
49750 0.991402 
49800 0.991404 
49850 0.991406 
49900 0.991408 
49950 0.99141 
50000 0.991411 
50050 0.991413 
50100 0.991415 
50150 0.991417 
50200 0.991419 
50250 0.991421 
50300 0.991423 
50350 0.991425 
50400 0.991427 
50450 0.991429 
50500 0.99143 
50550 0.991432 
50600 0.991434 
50650 0.991436 
50700 0.991438 
50750 0.99144 
50800 0.991442 
50850 0.991444 
50900 0.991446 
50950 0.991448 
51000 0.991449 
51050 0.991451 
51100 0.991453 
51150 0.991455 
51200 0.991457 
51250 0.991459 
51300 0.991461 
51350 0.991462 
51400 0.991464 
51450 0.991466 
51500 0.991468 
51550 0.99147 
51600 0.991472 
51650 0.991473 
51700 0.991475 
51750 0.991477 
51800 0.991479 
51850 0.991481 
51900 0.991483 
51950 0.991484 
52000 0.991486 
52050 0.991488 
52100 0.99149 
52150 0.991492 
52200 0.991493 
52250 0.991495 
52300 0.991497 
52350 0.991499 
52400 0.991501 
52450 0.991502 
52500 0.991504 
52550 0.991506 
52600 0.991508 
52650 0.99151 
52700 0.991511 
52750 0.991513 
52800 0.991515 
52850 0.991517 
52900 0.991519 
52950 0.99152 
53000 0.991522 
53050 0.991524 
53100 0.991526 
53150 0.991527 
53200 0.991529 
53250 0.991531 
53300 0.991533 
53350 0.991534 
53400 0.991536 
53450 0.991538 
53500 0.991539 
53550 0.991541 
53600 0.991543 
53650 0.991545 
53700 0.991546 
53750 0.991548 
53800 0.99155 
53850 0.991552 
53900 0.991553 
53950 0.991555 
54000 0.991557 
54050 0.991559 
54100 0.99156 
54150 0.991562 
54200 0.991564 
54250 0.991565 
54300 0.991567 
54350 0.991569 
54400 0.99157 
54450 0.991572 
54500 0.991574 
54550 0.991576 
54600 0.991577 
54650 0.991579 
54700 0.991581 
54750 0.991582 
54800 0.991584 
54850 0.991586 
54900 0.991587 
54950 0.991589 
55000 0.991591 
55050 0.991592 
55100 0.991594 
55150 0.991596 
55200 0.991597 
55250 0.991599 
55300 0.991601 
55350 0.991602 
55400 0.991604 
55450 0.991606 
55500 0.991607 
55550 0.991609 
55600 0.991611 
55650 0.991612 
55700 0.991614 
55750 0.991616 
55800 0.991617 
55850 0.991619 
55900 0.99162 
55950 0.991622 
56000 0.991624 
56050 0.991625 
56100 0.991627 
56150 0.991629 
56200 0.99163 
56250 0.991632 
56300 0.991633 
56350 0.991635 
56400 0.991637 
56450 0.991638 
56500 0.99164 
56550 0.991642 
56600 0.991643 
56650 0.991645 
56700 0.991646 
56750 0.991648 
56800 0.99165 
56850 0.991651 
56900 0.991653 
56950 0.991654 
57000 0.991656 
57050 0.991658 
57100 0.991659 
57150 0.991661 
57200 0.991662 
57250 0.991664 
57300 0.991666 
57350 0.991667 
57400 0.991669 
57450 0.99167 
57500 0.991672 
57550 0.991673 
57600 0.991675 
57650 0.991677 
57700 0.991678 
57750 0.99168 
57800 0.991681 
57850 0.991683 
57900 0.991684 
57950 0.991686 
58000 0.991687 
58050 0.991689 
58100 0.991691 
58150 0.991692 
58200 0.991694 
58250 0.991695 
58300 0.991697 
58350 0.991698 
58400 0.9917 
58450 0.991701 
58500 0.991703 
58550 0.991704 
58600 0.991706 
58650 0.991708 
58700 0.991709 
58750 0.991711 
58800 0.991712 
58850 0.991714 
58900 0.991715 
58950 0.991717 
59000 0.991718 
59050 0.99172 
59100 0.991721 
59150 0.991723 
59200 0.991724 
59250 0.991726 
59300 0.991727 
59350 0.991729 
59400 0.99173 
59450 0.991732 
59500 0.991733 
59550 0.991735 
59600 0.991736 
59650 0.991738 
59700 0.991739 
59750 0.991741 
59800 0.991742 
59850 0.991744 
59900 0.991745 
59950 0.991747 
60000 0.991748 
60050 0.99175 
60100 0.991751 
60150 0.991753 
60200 0.991754 
60250 0.991756 
60300 0.991757 
60350 0.991759 
60400 0.99176 
60450 0.991762 
60500 0.991763 
60550 0.991765 
60600 0.991766 
60650 0.991768 
60700 0.991769 
60750 0.991771 
60800 0.991772 
60850 0.991774 
60900 0.991775 
60950 0.991776 
61000 0.991778 
61050 0.991779 
61100 0.991781 
61150 0.991782 
61200 0.991784 
61250 0.991785 
61300 0.991787 
61350 0.991788 
61400 0.99179 
61450 0.991791 
61500 0.991793 
61550 0.991794 
61600 0.991795 
61650 0.991797 
61700 0.991798 
61750 0.9918 
61800 0.991801 
61850 0.991803 
61900 0.991804 
61950 0.991805 
62000 0.991807 
62050 0.991808 
62100 0.99181 
62150 0.991811 
62200 0.991813 
62250 0.991814 
62300 0.991815 
62350 0.991817 
62400 0.991818 
62450 0.99182 
62500 0.991821 
62550 0.991823 
62600 0.991824 
62650 0.991825 
62700 0.991827 
62750 0.991828 
62800 0.99183 
62850 0.991831 
62900 0.991832 
62950 0.991834 
63000 0.991835 
63050 0.991837 
63100 0.991838 
63150 0.99184 
63200 0.991841 
63250 0.991842 
63300 0.991844 
63350 0.991845 
63400 0.991846 
63450 0.991848 
63500 0.991849 
63550 0.991851 
63600 0.991852 
63650 0.991853 
63700 0.991855 
63750 0.991856 
63800 0.991858 
63850 0.991859 
63900 0.99186 
63950 0.991862 
64000 0.991863 
64050 0.991865 
64100 0.991866 
64150 0.991867 
64200 0.991869 
64250 0.99187 
64300 0.991871 
64350 0.991873 
64400 0.991874 
64450 0.991876 
64500 0.991877 
64550 0.991878 
64600 0.99188 
64650 0.991881 
64700 0.991882 
64750 0.991884 
64800 0.991885 
64850 0.991886 
64900 0.991888 
64950 0.991889 
65000 0.991891 
65050 0.991892 
65100 0.991893 
65150 0.991895 
65200 0.991896 
65250 0.991897 
65300 0.991899 
65350 0.9919 
65400 0.991901 
65450 0.991903 
65500 0.991904 
65550 0.991905 
65600 0.991907 
65650 0.991908 
65700 0.991909 
65750 0.991911 
65800 0.991912 
65850 0.991913 
65900 0.991915 
65950 0.991916 
66000 0.991917 
66050 0.991919 
66100 0.99192 
66150 0.991921 
66200 0.991923 
66250 0.991924 
66300 0.991925 
66350 0.991927 
66400 0.991928 
66450 0.991929 
66500 0.991931 
66550 0.991932 
66600 0.991933 
66650 0.991935 
66700 0.991936 
66750 0.991937 
66800 0.991939 
66850 0.99194 
66900 0.991941 
66950 0.991943 
67000 0.991944 
67050 0.991945 
67100 0.991947 
67150 0.991948 
67200 0.991949 
67250 0.99195 
67300 0.991952 
67350 0.991953 
67400 0.991954 
67450 0.991956 
67500 0.991957 
67550 0.991958 
67600 0.99196 
67650 0.991961 
67700 0.991962 
67750 0.991964 
67800 0.991965 
67850 0.991966 
67900 0.991967 
67950 0.991969 
68000 0.99197 
68050 0.991971 
68100 0.991973 
68150 0.991974 
68200 0.991975 
68250 0.991976 
68300 0.991978 
68350 0.991979 
68400 0.99198 
68450 0.991982 
68500 0.991983 
68550 0.991984 
68600 0.991985 
68650 0.991987 
68700 0.991988 
68750 0.991989 
68800 0.991991 
68850 0.991992 
68900 0.991993 
68950 0.991994 
69000 0.991996 
69050 0.991997 
69100 0.991998 
69150 0.992 
69200 0.992001 
69250 0.992002 
69300 0.992003 
69350 0.992005 
69400 0.992006 
69450 0.992007 
69500 0.992008 
69550 0.99201 
69600 0.992011 
69650 0.992012 
69700 0.992013 
69750 0.992015 
69800 0.992016 
69850 0.992017 
69900 0.992018 
69950 0.99202 
70000 0.992021 
70050 0.992022 
70100 0.992023 
70150 0.992025 
70200 0.992026 
70250 0.992027 
70300 0.992028 
70350 0.99203 
70400 0.992031 
70450 0.992032 
70500 0.992033 
70550 0.992035 
70600 0.992036 
70650 0.992037 
70700 0.992038 
70750 0.99204 
70800 0.992041 
70850 0.992042 
70900 0.992043 
70950 0.992045 
71000 0.992046 
71050 0.992047 
71100 0.992048 
71150 0.99205 
71200 0.992051 
71250 0.992052 
71300 0.992053 
71350 0.992055 
71400 0.992056 
71450 0.992057 
71500 0.992058 
71550 0.992059 
71600 0.992061 
71650 0.992062 
71700 0.992063 
71750 0.992064 
71800 0.992066 
71850 0.992067 
71900 0.992068 
71950 0.992069 
72000 0.992071 
72050 0.992072 
72100 0.992073 
72150 0.992074 
72200 0.992075 
72250 0.992077 
72300 0.992078 
72350 0.992079 
72400 0.99208 
72450 0.992081 
72500 0.992083 
72550 0.992084 
72600 0.992085 
72650 0.992086 
72700 0.992087 
72750 0.992089 
72800 0.99209 
72850 0.992091 
72900 0.992092 
72950 0.992094 
73000 0.992095 
73050 0.992096 
73100 0.992097 
73150 0.992098 
73200 0.9921 
73250 0.992101 
73300 0.992102 
73350 0.992103 
73400 0.992104 
73450 0.992106 
73500 0.992107 
73550 0.992108 
73600 0.992109 
73650 0.99211 
73700 0.992112 
73750 0.992113 
73800 0.992114 
73850 0.992115 
73900 0.992116 
73950 0.992117 
74000 0.992119 
74050 0.99212 
74100 0.992121 
74150 0.992122 
74200 0.992123 
74250 0.992125 
74300 0.992126 
74350 0.992127 
74400 0.992128 
74450 0.992129 
74500 0.992131 
74550 0.992132 
74600 0.992133 
74650 0.992134 
74700 0.992135 
74750 0.992136 
74800 0.992138 
74850 0.992139 
74900 0.99214 
74950 0.992141 
75000 0.992142 
75050 0.992144 
75100 0.992145 
75150 0.992146 
75200 0.992147 
75250 0.992148 
75300 0.992149 
75350 0.99215 
75400 0.992152 
75450 0.992153 
75500 0.992154 
75550 0.992155 
75600 0.992156 
75650 0.992157 
75700 0.992159 
75750 0.99216 
75800 0.992161 
75850 0.992162 
75900 0.992163 
75950 0.992164 
76000 0.992166 
76050 0.992167 
76100 0.992168 
76150 0.992169 
76200 0.99217 
76250 0.992171 
76300 0.992173 
76350 0.992174 
76400 0.992175 
76450 0.992176 
76500 0.992177 
76550 0.992178 
76600 0.99218 
76650 0.992181 
76700 0.992182 
76750 0.992183 
76800 0.992184 
76850 0.992185 
76900 0.992186 
76950 0.992188 
77000 0.992189 
77050 0.99219 
77100 0.992191 
77150 0.992192 
77200 0.992193 
77250 0.992194 
77300 0.992196 
77350 0.992197 
77400 0.992198 
77450 0.992199 
77500 0.9922 
77550 0.992201 
77600 0.992202 
77650 0.992204 
77700 0.992205 
77750 0.992206 
77800 0.992207 
77850 0.992208 
77900 0.992209 
77950 0.99221 
78000 0.992212 
78050 0.992213 
78100 0.992214 
78150 0.992215 
78200 0.992216 
78250 0.992217 
78300 0.992218 
78350 0.992219 
78400 0.992221 
78450 0.992222 
78500 0.992223 
78550 0.992224 
78600 0.992225 
78650 0.992226 
78700 0.992227 
78750 0.992228 
78800 0.99223 
78850 0.992231 
78900 0.992232 
78950 0.992233 
79000 0.992234 
79050 0.992235 
79100 0.992236 
79150 0.992237 
79200 0.992239 
79250 0.99224 
79300 0.992241 
79350 0.992242 
79400 0.992243 
79450 0.992244 
79500 0.992245 
79550 0.992246 
79600 0.992247 
79650 0.992249 
79700 0.99225 
79750 0.992251 
79800 0.992252 
79850 0.992253 
79900 0.992254 
79950 0.992255 
80000 0.992256 
80050 0.992257 
80100 0.992258 
80150 0.99226 
80200 0.992261 
80250 0.992262 
80300 0.992263 
80350 0.992264 
80400 0.992265 
80450 0.992266 
80500 0.992267 
80550 0.992268 
80600 0.99227 
80650 0.992271 
80700 0.992272 
80750 0.992273 
80800 0.992274 
80850 0.992275 
80900 0.992276 
80950 0.992277 
81000 0.992278 
81050 0.992279 
81100 0.992281 
81150 0.992282 
81200 0.992283 
81250 0.992284 
81300 0.992285 
81350 0.992286 
81400 0.992287 
81450 0.992288 
81500 0.992289 
81550 0.99229 
81600 0.992291 
81650 0.992293 
81700 0.992294 
81750 0.992295 
81800 0.992296 
81850 0.992297 
81900 0.992298 
81950 0.992299 
82000 0.9923 
82050 0.992301 
82100 0.992302 
82150 0.992303 
82200 0.992304 
82250 0.992306 
82300 0.992307 
82350 0.992308 
82400 0.992309 
82450 0.99231 
82500 0.992311 
82550 0.992312 
82600 0.992313 
82650 0.992314 
82700 0.992315 
82750 0.992316 
82800 0.992317 
82850 0.992319 
82900 0.99232 
82950 0.992321 
83000 0.992322 
83050 0.992323 
83100 0.992324 
83150 0.992325 
83200 0.992326 
83250 0.992327 
83300 0.992328 
83350 0.992329 
83400 0.99233 
83450 0.992331 
83500 0.992332 
83550 0.992333 
83600 0.992335 
83650 0.992336 
83700 0.992337 
83750 0.992338 
83800 0.992339 
83850 0.99234 
83900 0.992341 
83950 0.992342 
84000 0.992343 
84050 0.992344 
84100 0.992345 
84150 0.992346 
84200 0.992347 
84250 0.992348 
84300 0.992349 
84350 0.992351 
84400 0.992352 
84450 0.992353 
84500 0.992354 
84550 0.992355 
84600 0.992356 
84650 0.992357 
84700 0.992358 
84750 0.992359 
84800 0.99236 
84850 0.992361 
84900 0.992362 
84950 0.992363 
85000 0.992364 
85050 0.992365 
85100 0.992366 
85150 0.992367 
85200 0.992368 
85250 0.992369 
85300 0.99237 
85350 0.992372 
85400 0.992373 
85450 0.992374 
85500 0.992375 
85550 0.992376 
85600 0.992377 
85650 0.992378 
85700 0.992379 
85750 0.99238 
85800 0.992381 
85850 0.992382 
85900 0.992383 
85950 0.992384 
86000 0.992385 
86050 0.992386 
86100 0.992387 
86150 0.992388 
86200 0.992389 
86250 0.99239 
86300 0.992391 
86350 0.992392 
86400 0.992393 
86450 0.992394 
86500 0.992395 
86550 0.992396 
86600 0.992398 
86650 0.992399 
86700 0.9924 
86750 0.992401 
86800 0.992402 
86850 0.992403 
86900 0.992404 
86950 0.992405 
87000 0.992406 
87050 0.992407 
87100 0.992408 
87150 0.992409 
87200 0.99241 
87250 0.992411 
87300 0.992412 
87350 0.992413 
87400 0.992414 
87450 0.992415 
87500 0.992416 
87550 0.992417 
87600 0.992418 
87650 0.992419 
87700 0.99242 
87750 0.992421 
87800 0.992422 
87850 0.992423 
87900 0.992424 
87950 0.992425 
88000 0.992426 
88050 0.992427 
88100 0.992428 
88150 0.992429 
88200 0.99243 
88250 0.992431 
88300 0.992432 
88350 0.992433 
88400 0.992434 
88450 0.992435 
88500 0.992436 
88550 0.992437 
88600 0.992438 
88650 0.99244 
88700 0.992441 
88750 0.992442 
88800 0.992443 
88850 0.992444 
88900 0.992445 
88950 0.992446 
89000 0.992447 
89050 0.992448 
89100 0.992449 
89150 0.99245 
89200 0.992451 
89250 0.992452 
89300 0.992453 
89350 0.992454 
89400 0.992455 
89450 0.992456 
89500 0.992457 
89550 0.992458 
89600 0.992459 
89650 0.99246 
89700 0.992461 
89750 0.992462 
89800 0.992463 
89850 0.992464 
89900 0.992465 
89950 0.992466 
90000 0.992467 
90050 0.992468 
90100 0.992469 
90150 0.99247 
90200 0.992471 
90250 0.992472 
90300 0.992473 
90350 0.992474 
90400 0.992475 
90450 0.992476 
90500 0.992477 
90550 0.992478 
90600 0.992479 
90650 0.99248 
90700 0.992481 
90750 0.992482 
90800 0.992483 
90850 0.992484 
90900 0.992485 
90950 0.992486 
91000 0.992487 
91050 0.992488 
91100 0.992489 
91150 0.99249 
91200 0.992491 
91250 0.992492 
91300 0.992493 
91350 0.992494 
91400 0.992495 
91450 0.992495 
91500 0.992496 
91550 0.992497 
91600 0.992498 
91650 0.992499 
91700 0.9925 
91750 0.992501 
91800 0.992502 
91850 0.992503 
91900 0.992504 
91950 0.992505 
92000 0.992506 
92050 0.992507 
92100 0.992508 
92150 0.992509 
92200 0.99251 
92250 0.992511 
92300 0.992512 
92350 0.992513 
92400 0.992514 
92450 0.992515 
92500 0.992516 
92550 0.992517 
92600 0.992518 
92650 0.992519 
92700 0.99252 
92750 0.992521 
92800 0.992522 
92850 0.992523 
92900 0.992524 
92950 0.992525 
93000 0.992526 
93050 0.992527 
93100 0.992528 
93150 0.992529 
93200 0.99253 
93250 0.992531 
93300 0.992532 
93350 0.992533 
93400 0.992534 
93450 0.992535 
93500 0.992536 
93550 0.992536 
93600 0.992537 
93650 0.992538 
93700 0.992539 
93750 0.99254 
93800 0.992541 
93850 0.992542 
93900 0.992543 
93950 0.992544 
94000 0.992545 
94050 0.992546 
94100 0.992547 
94150 0.992548 
94200 0.992549 
94250 0.99255 
94300 0.992551 
94350 0.992552 
94400 0.992553 
94450 0.992554 
94500 0.992555 
94550 0.992556 
94600 0.992557 
94650 0.992558 
94700 0.992559 
94750 0.99256 
94800 0.992561 
94850 0.992562 
94900 0.992562 
94950 0.992563 
95000 0.992564 
95050 0.992565 
95100 0.992566 
95150 0.992567 
95200 0.992568 
95250 0.992569 
95300 0.99257 
95350 0.992571 
95400 0.992572 
95450 0.992573 
95500 0.992574 
95550 0.992575 
95600 0.992576 
95650 0.992577 
95700 0.992578 
95750 0.992579 
95800 0.99258 
95850 0.992581 
95900 0.992581 
95950 0.992582 
96000 0.992583 
96050 0.992584 
96100 0.992585 
96150 0.992586 
96200 0.992587 
96250 0.992588 
96300 0.992589 
96350 0.99259 
96400 0.992591 
96450 0.992592 
96500 0.992593 
96550 0.992594 
96600 0.992595 
96650 0.992596 
96700 0.992597 
96750 0.992598 
96800 0.992598 
96850 0.992599 
96900 0.9926 
96950 0.992601 
97000 0.992602 
97050 0.992603 
97100 0.992604 
97150 0.992605 
97200 0.992606 
97250 0.992607 
97300 0.992608 
97350 0.992609 
97400 0.99261 
97450 0.992611 
97500 0.992612 
97550 0.992612 
97600 0.992613 
97650 0.992614 
97700 0.992615 
97750 0.992616 
97800 0.992617 
97850 0.992618 
97900 0.992619 
97950 0.99262 
98000 0.992621 
98050 0.992622 
98100 0.992623 
98150 0.992624 
98200 0.992625 
98250 0.992626 
98300 0.992626 
98350 0.992627 
98400 0.992628 
98450 0.992629 
98500 0.99263 
98550 0.992631 
98600 0.992632 
98650 0.992633 
98700 0.992634 
98750 0.992635 
98800 0.992636 
98850 0.992637 
98900 0.992638 
98950 0.992638 
99000 0.992639 
99050 0.99264 
99100 0.992641 
99150 0.992642 
99200 0.992643 
99250 0.992644 
99300 0.992645 
99350 0.992646 
99400 0.992647 
99450 0.992648 
99500 0.992649 
99550 0.992649 
99600 0.99265 
99650 0.992651 
99700 0.992652 
99750 0.992653 
99800 0.992654 
99850 0.992655 
99900 0.992656 
99950 0.992657 
100000 0.992658 
