#F U:\Beamline I20\!M2 and filters heat load\xop\SiC-0p2mm.dat
#C SiC - 0.2mm - normalized
#S 1 File written by xplot on Fri Mar 06 14:41:49 2009
#N 2
#L    Photon Energy [eV]  Intens after oe #1
50 0 
100 0 
150 0 
200 0 
250 0 
300 0 
350 0 
400 0 
450 0 
500 0 
550 0 
600 0 
650 0 
700 0 
750 0 
800 0 
850 0 
900 0 
950 0 
1000 0 
1050 1.20512E-043 
1100 1.54952E-038 
1150 2.99108E-034 
1200 1.35889E-030 
1250 1.86262E-027 
1300 9.43361E-025 
1350 2.08747E-022 
1400 2.31463E-020 
1450 1.43858E-018 
1500 5.50281E-017 
1550 1.39617E-015 
1600 2.47861E-014 
1650 3.24049E-013 
1700 3.15072E-012 
1750 2.46696E-011 
1800 1.53394E-010 
1850 0 
1900 0 
1950 0 
2000 0 
2050 0 
2100 0 
2150 0 
2200 0 
2250 1.96182E-044 
2300 4.25294E-042 
2350 7.08505E-040 
2400 9.13562E-038 
2450 9.06965E-036 
2500 6.93175E-034 
2550 4.09505E-032 
2600 1.88192E-030 
2650 6.79059E-029 
2700 1.94388E-027 
2750 4.46654E-026 
2800 8.33566E-025 
2850 1.27947E-023 
2900 1.63494E-022 
2950 1.74406E-021 
3000 1.55892E-020 
3050 1.20218E-019 
3100 8.11602E-019 
3150 4.85894E-018 
3200 2.6096E-017 
3250 1.26246E-016 
3300 5.46547E-016 
3350 2.18663E-015 
3400 8.14221E-015 
3450 2.83932E-014 
3500 9.10275E-014 
3550 2.7548E-013 
3600 7.94109E-013 
3650 2.1782E-012 
3700 5.6049E-012 
3750 1.39093E-011 
3800 3.33696E-011 
3850 7.57631E-011 
3900 1.66935E-010 
3950 3.5847E-010 
4000 7.34615E-010 
4050 1.47096E-009 
4100 2.87871E-009 
4150 5.41188E-009 
4200 1.00085E-008 
4250 1.80021E-008 
4300 3.15312E-008 
4350 5.45271E-008 
4400 9.09741E-008 
4450 1.50127E-007 
4500 2.42027E-007 
4550 3.82858E-007 
4600 5.97574E-007 
4650 9.09831E-007 
4700 1.37701E-006 
4750 2.02629E-006 
4800 2.96758E-006 
4850 4.2517E-006 
4900 6.04518E-006 
4950 8.44661E-006 
5000 1.16933E-005 
5050 1.59593E-005 
5100 2.15704E-005 
5150 2.88044E-005 
5200 3.8106E-005 
5250 4.98622E-005 
5300 6.47104E-005 
5350 8.30927E-005 
5400 0.000106002 
5450 0.00013375 
5500 0.000168023 
5550 0.000208574 
5600 0.000258431 
5650 0.000315986 
5700 0.000386358 
5750 0.000466215 
5800 0.000562065 
5850 0.000671385 
5900 0.000798872 
5950 0.000945601 
6000 0.00111157 
6050 0.00130499 
6100 0.0015167 
6150 0.00176276 
6200 0.00203265 
6250 0.00233766 
6300 0.00267949 
6350 0.0030514 
6400 0.00347494 
6450 0.00392548 
6500 0.00442966 
6550 0.00498256 
6600 0.00557479 
6650 0.00623741 
6700 0.0069334 
6750 0.00769624 
6800 0.00852922 
6850 0.00939812 
6900 0.0103555 
6950 0.0113663 
7000 0.0124385 
7050 0.0136118 
7100 0.0148145 
7150 0.0161087 
7200 0.0175059 
7250 0.0189225 
7300 0.0204537 
7350 0.022074 
7400 0.0237285 
7450 0.0255069 
7500 0.0273604 
7550 0.0292606 
7600 0.0312928 
7650 0.0333875 
7700 0.0355357 
7750 0.037822 
7800 0.0401645 
7850 0.0425591 
7900 0.0450964 
7950 0.0476924 
8000 0.0503272 
8050 0.0531075 
8100 0.055962 
8150 0.0588272 
8200 0.0618391 
8250 0.0649567 
8300 0.0680387 
8350 0.071267 
8400 0.0746485 
8450 0.0779341 
8500 0.0813607 
8550 0.084938 
8600 0.088481 
8650 0.0920869 
8700 0.0958399 
8750 0.0996447 
8800 0.103408 
8850 0.107313 
8900 0.111365 
8950 0.115283 
9000 0.119318 
9050 0.123495 
9100 0.127673 
9150 0.131815 
9200 0.136091 
9250 0.140506 
9300 0.144762 
9350 0.149114 
9400 0.153598 
9450 0.158119 
9500 0.162524 
9550 0.167053 
9600 0.171708 
9650 0.176283 
9700 0.180835 
9750 0.185506 
9800 0.190296 
9850 0.19491 
9900 0.199575 
9950 0.204351 
10000 0.209242 
10050 0.213883 
10100 0.218628 
10150 0.223477 
10200 0.228402 
10250 0.233095 
10300 0.237886 
10350 0.242774 
10400 0.247726 
10450 0.252446 
10500 0.257257 
10550 0.262158 
10600 0.26714 
10650 0.271856 
10700 0.276656 
10750 0.28154 
10800 0.286511 
10850 0.291237 
10900 0.296001 
10950 0.300843 
11000 0.305764 
11050 0.310521 
11100 0.31523 
11150 0.320009 
11200 0.324861 
11250 0.329657 
11300 0.334289 
11350 0.338986 
11400 0.34375 
11450 0.34858 
11500 0.353129 
11550 0.357727 
11600 0.362384 
11650 0.367102 
11700 0.37171 
11750 0.376195 
11800 0.380734 
11850 0.385328 
11900 0.389977 
11950 0.394362 
12000 0.39877 
12050 0.403227 
12100 0.407734 
12150 0.412202 
12200 0.416473 
12250 0.420787 
12300 0.425147 
12350 0.429551 
12400 0.433831 
12450 0.437996 
12500 0.442201 
12550 0.446446 
12600 0.450732 
12650 0.454841 
12700 0.458886 
12750 0.462967 
12800 0.467084 
12850 0.471238 
12900 0.475198 
12950 0.479114 
13000 0.483062 
13050 0.487043 
13100 0.491056 
13150 0.494888 
13200 0.498667 
13250 0.502474 
13300 0.50631 
13350 0.510176 
13400 0.513902 
13450 0.517537 
13500 0.521198 
13550 0.524885 
13600 0.528599 
13650 0.532238 
13700 0.535726 
13750 0.539237 
13800 0.542771 
13850 0.546328 
13900 0.5499 
13950 0.553237 
14000 0.556595 
14050 0.559973 
14100 0.563372 
14150 0.566791 
14200 0.57008 
14250 0.573285 
14300 0.576509 
14350 0.57975 
14400 0.58301 
14450 0.586274 
14500 0.589329 
14550 0.5924 
14600 0.595486 
14650 0.598589 
14700 0.601708 
14750 0.604748 
14800 0.607667 
14850 0.610599 
14900 0.613545 
14950 0.616506 
15000 0.61948 
15050 0.622326 
15100 0.625107 
15150 0.627899 
15200 0.630705 
15250 0.633523 
15300 0.636353 
15350 0.639035 
15400 0.641681 
15450 0.644338 
15500 0.647006 
15550 0.649684 
15600 0.652374 
15650 0.654917 
15700 0.657427 
15750 0.659947 
15800 0.662476 
15850 0.665015 
15900 0.667563 
15950 0.669993 
16000 0.672372 
16050 0.674759 
16100 0.677154 
16150 0.679558 
16200 0.681971 
16250 0.68431 
16300 0.68656 
16350 0.688817 
16400 0.691082 
16450 0.693355 
16500 0.695634 
16550 0.697902 
16600 0.700027 
16650 0.702157 
16700 0.704295 
16750 0.706438 
16800 0.708589 
16850 0.710745 
16900 0.712806 
16950 0.714815 
17000 0.71683 
17050 0.71885 
17100 0.720876 
17150 0.722908 
17200 0.724939 
17250 0.72683 
17300 0.728727 
17350 0.730628 
17400 0.732534 
17450 0.734445 
17500 0.736362 
17550 0.738237 
17600 0.740021 
17650 0.741809 
17700 0.743601 
17750 0.745398 
17800 0.747199 
17850 0.749005 
17900 0.750752 
17950 0.75243 
18000 0.754113 
18050 0.755799 
18100 0.757489 
18150 0.759183 
18200 0.76088 
18250 0.762522 
18300 0.764101 
18350 0.765684 
18400 0.767269 
18450 0.768858 
18500 0.77045 
18550 0.772046 
18600 0.773603 
18650 0.775086 
18700 0.776571 
18750 0.778059 
18800 0.77955 
18850 0.781044 
18900 0.78254 
18950 0.784031 
19000 0.785422 
19050 0.786815 
19100 0.788211 
19150 0.78961 
19200 0.791011 
19250 0.792414 
19300 0.79382 
19350 0.795158 
19400 0.796464 
19450 0.797772 
19500 0.799081 
19550 0.800394 
19600 0.801708 
19650 0.803024 
19700 0.804331 
19750 0.805553 
19800 0.806777 
19850 0.808003 
19900 0.809231 
19950 0.810461 
20000 0.811692 
20050 0.812926 
20100 0.814123 
20150 0.815268 
20200 0.816415 
20250 0.817563 
20300 0.818714 
20350 0.819865 
20400 0.821019 
20450 0.822173 
20500 0.823281 
20550 0.824353 
20600 0.825427 
20650 0.826501 
20700 0.827577 
20750 0.828655 
20800 0.829734 
20850 0.830814 
20900 0.83185 
20950 0.832853 
21000 0.833856 
21050 0.834861 
21100 0.835867 
21150 0.836874 
21200 0.837882 
21250 0.838891 
21300 0.839872 
21350 0.840808 
21400 0.841746 
21450 0.842684 
21500 0.843624 
21550 0.844564 
21600 0.845506 
21650 0.846448 
21700 0.847387 
21750 0.848261 
21800 0.849136 
21850 0.850013 
21900 0.85089 
21950 0.851768 
22000 0.852647 
22050 0.853527 
22100 0.854408 
22150 0.855251 
22200 0.856067 
22250 0.856885 
22300 0.857703 
22350 0.858522 
22400 0.859342 
22450 0.860163 
22500 0.860984 
22550 0.861806 
22600 0.862571 
22650 0.863334 
22700 0.864096 
22750 0.86486 
22800 0.865624 
22850 0.866389 
22900 0.867155 
22950 0.867921 
23000 0.868681 
23050 0.869391 
23100 0.870102 
23150 0.870814 
23200 0.871526 
23250 0.872239 
23300 0.872952 
23350 0.873666 
23400 0.874381 
23450 0.875089 
23500 0.875751 
23550 0.876414 
23600 0.877077 
23650 0.877741 
23700 0.878405 
23750 0.87907 
23800 0.879735 
23850 0.880401 
23900 0.881067 
23950 0.881686 
24000 0.882303 
24050 0.882922 
24100 0.88354 
24150 0.884159 
24200 0.884778 
24250 0.885398 
24300 0.886018 
24350 0.886639 
24400 0.887231 
24450 0.887806 
24500 0.888382 
24550 0.888957 
24600 0.889534 
24650 0.89011 
24700 0.890687 
24750 0.891264 
24800 0.891842 
24850 0.892416 
24900 0.892951 
24950 0.893487 
25000 0.894023 
25050 0.894559 
25100 0.895095 
25150 0.895632 
25200 0.896169 
25250 0.896707 
25300 0.897245 
25350 0.897768 
25400 0.898266 
25450 0.898765 
25500 0.899264 
25550 0.899763 
25600 0.900262 
25650 0.900762 
25700 0.901262 
25750 0.901762 
25800 0.902263 
25850 0.902746 
25900 0.90321 
25950 0.903674 
26000 0.904138 
26050 0.904602 
26100 0.905067 
26150 0.905532 
26200 0.905997 
26250 0.906462 
26300 0.906928 
26350 0.907381 
26400 0.907812 
26450 0.908244 
26500 0.908675 
26550 0.909107 
26600 0.909539 
26650 0.909972 
26700 0.910404 
26750 0.910837 
26800 0.91127 
26850 0.911701 
26900 0.912102 
26950 0.912503 
27000 0.912905 
27050 0.913306 
27100 0.913708 
27150 0.91411 
27200 0.914512 
27250 0.914914 
27300 0.915316 
27350 0.915719 
27400 0.916105 
27450 0.916478 
27500 0.916851 
27550 0.917224 
27600 0.917597 
27650 0.917971 
27700 0.918344 
27750 0.918718 
27800 0.919092 
27850 0.919466 
27900 0.91984 
27950 0.92019 
28000 0.920537 
28050 0.920884 
28100 0.921231 
28150 0.921577 
28200 0.921925 
28250 0.922272 
28300 0.922619 
28350 0.922967 
28400 0.923314 
28450 0.923662 
28500 0.923985 
28550 0.924307 
28600 0.924629 
28650 0.924952 
28700 0.925274 
28750 0.925597 
28800 0.925919 
28850 0.926242 
28900 0.926565 
28950 0.926888 
29000 0.927211 
29050 0.927514 
29100 0.927813 
29150 0.928113 
29200 0.928412 
29250 0.928711 
29300 0.929011 
29350 0.929311 
29400 0.92961 
29450 0.92991 
29500 0.93021 
29550 0.93051 
29600 0.9308 
29650 0.931077 
29700 0.931355 
29750 0.931634 
29800 0.931912 
29850 0.93219 
29900 0.932468 
29950 0.932747 
30000 0.933025 
30050 0.933303 
30100 0.933582 
30150 0.933861 
30200 0.934121 
30250 0.934379 
30300 0.934637 
30350 0.934895 
30400 0.935153 
30450 0.935412 
30500 0.93567 
30550 0.935928 
30600 0.936187 
30650 0.936446 
30700 0.936704 
30750 0.936961 
30800 0.9372 
30850 0.93744 
30900 0.937679 
30950 0.937919 
31000 0.938159 
31050 0.938399 
31100 0.938639 
31150 0.938878 
31200 0.939119 
31250 0.939359 
31300 0.939599 
31350 0.939837 
31400 0.940059 
31450 0.940282 
31500 0.940504 
31550 0.940727 
31600 0.940949 
31650 0.941172 
31700 0.941395 
31750 0.941617 
31800 0.94184 
31850 0.942063 
31900 0.942286 
31950 0.942509 
32000 0.942717 
32050 0.942924 
32100 0.94313 
32150 0.943337 
32200 0.943543 
32250 0.94375 
32300 0.943957 
32350 0.944163 
32400 0.94437 
32450 0.944577 
32500 0.944783 
32550 0.94499 
32600 0.945192 
32650 0.945383 
32700 0.945575 
32750 0.945767 
32800 0.945958 
32850 0.94615 
32900 0.946342 
32950 0.946533 
33000 0.946725 
33050 0.946917 
33100 0.947109 
33150 0.947301 
33200 0.947493 
33250 0.947676 
33300 0.947854 
33350 0.948032 
33400 0.948209 
33450 0.948387 
33500 0.948565 
33550 0.948743 
33600 0.948921 
33650 0.949099 
33700 0.949277 
33750 0.949455 
33800 0.949633 
33850 0.949811 
33900 0.949981 
33950 0.950146 
34000 0.95031 
34050 0.950475 
34100 0.95064 
34150 0.950805 
34200 0.95097 
34250 0.951135 
34300 0.951301 
34350 0.951466 
34400 0.951631 
34450 0.951796 
34500 0.951961 
34550 0.952122 
34600 0.952275 
34650 0.952428 
34700 0.952581 
34750 0.952734 
34800 0.952887 
34850 0.95304 
34900 0.953193 
34950 0.953346 
35000 0.953499 
35050 0.953652 
35100 0.953806 
35150 0.953959 
35200 0.954112 
35250 0.954255 
35300 0.954397 
35350 0.954539 
35400 0.954681 
35450 0.954823 
35500 0.954965 
35550 0.955107 
35600 0.955249 
35650 0.955391 
35700 0.955533 
35750 0.955675 
35800 0.955817 
35850 0.95596 
35900 0.956101 
35950 0.956232 
36000 0.956364 
36050 0.956495 
36100 0.956627 
36150 0.956759 
36200 0.95689 
36250 0.957022 
36300 0.957154 
36350 0.957285 
36400 0.957417 
36450 0.957549 
36500 0.957681 
36550 0.957812 
36600 0.957944 
36650 0.958066 
36700 0.958188 
36750 0.95831 
36800 0.958432 
36850 0.958554 
36900 0.958676 
36950 0.958798 
37000 0.958921 
37050 0.959043 
37100 0.959165 
37150 0.959287 
37200 0.959409 
37250 0.959532 
37300 0.959654 
37350 0.959769 
37400 0.959882 
37450 0.959996 
37500 0.960109 
37550 0.960222 
37600 0.960335 
37650 0.960449 
37700 0.960562 
37750 0.960675 
37800 0.960788 
37850 0.960902 
37900 0.961015 
37950 0.961128 
38000 0.961242 
38050 0.961354 
38100 0.961459 
38150 0.961564 
38200 0.961669 
38250 0.961774 
38300 0.961879 
38350 0.961984 
38400 0.962089 
38450 0.962194 
38500 0.962299 
38550 0.962404 
38600 0.962509 
38650 0.962614 
38700 0.962719 
38750 0.962824 
38800 0.962927 
38850 0.963025 
38900 0.963122 
38950 0.963219 
39000 0.963317 
39050 0.963414 
39100 0.963512 
39150 0.963609 
39200 0.963706 
39250 0.963804 
39300 0.963901 
39350 0.963999 
39400 0.964096 
39450 0.964194 
39500 0.964291 
39550 0.964388 
39600 0.964478 
39650 0.964568 
39700 0.964659 
39750 0.964749 
39800 0.964839 
39850 0.96493 
39900 0.96502 
39950 0.96511 
40000 0.965201 
40050 0.965291 
40100 0.965381 
40150 0.965472 
40200 0.965562 
40250 0.965652 
40300 0.965743 
40350 0.965829 
40400 0.965913 
40450 0.965996 
40500 0.96608 
40550 0.966164 
40600 0.966248 
40650 0.966331 
40700 0.966415 
40750 0.966499 
40800 0.966583 
40850 0.966666 
40900 0.96675 
40950 0.966834 
41000 0.966918 
41050 0.967002 
41100 0.967085 
41150 0.967164 
41200 0.967241 
41250 0.967319 
41300 0.967397 
41350 0.967474 
41400 0.967552 
41450 0.96763 
41500 0.967707 
41550 0.967785 
41600 0.967863 
41650 0.967941 
41700 0.968018 
41750 0.968096 
41800 0.968174 
41850 0.968251 
41900 0.968329 
41950 0.968402 
42000 0.968474 
42050 0.968546 
42100 0.968618 
42150 0.96869 
42200 0.968763 
42250 0.968835 
42300 0.968907 
42350 0.968979 
42400 0.969051 
42450 0.969123 
42500 0.969195 
42550 0.969267 
42600 0.969339 
42650 0.969411 
42700 0.969483 
42750 0.969553 
42800 0.96962 
42850 0.969687 
42900 0.969754 
42950 0.96982 
43000 0.969887 
43050 0.969954 
43100 0.970021 
43150 0.970088 
43200 0.970155 
43250 0.970221 
43300 0.970288 
43350 0.970355 
43400 0.970422 
43450 0.970489 
43500 0.970556 
43550 0.970622 
43600 0.970686 
43650 0.970748 
43700 0.97081 
43750 0.970872 
43800 0.970934 
43850 0.970996 
43900 0.971058 
43950 0.97112 
44000 0.971182 
44050 0.971244 
44100 0.971306 
44150 0.971368 
44200 0.97143 
44250 0.971492 
44300 0.971554 
44350 0.971616 
44400 0.971678 
44450 0.971737 
44500 0.971794 
44550 0.971852 
44600 0.971909 
44650 0.971967 
44700 0.972024 
44750 0.972082 
44800 0.972139 
44850 0.972197 
44900 0.972254 
44950 0.972312 
45000 0.972369 
45050 0.972427 
45100 0.972484 
45150 0.972542 
45200 0.9726 
45250 0.972657 
45300 0.972713 
45350 0.972767 
45400 0.97282 
45450 0.972873 
45500 0.972927 
45550 0.97298 
45600 0.973033 
45650 0.973087 
45700 0.97314 
45750 0.973193 
45800 0.973247 
45850 0.9733 
45900 0.973354 
45950 0.973407 
46000 0.97346 
46050 0.973514 
46100 0.973567 
46150 0.97362 
46200 0.973671 
46250 0.973721 
46300 0.97377 
46350 0.97382 
46400 0.97387 
46450 0.973919 
46500 0.973969 
46550 0.974018 
46600 0.974068 
46650 0.974117 
46700 0.974167 
46750 0.974216 
46800 0.974266 
46850 0.974315 
46900 0.974365 
46950 0.974414 
47000 0.974464 
47050 0.974513 
47100 0.974561 
47150 0.974607 
47200 0.974653 
47250 0.974699 
47300 0.974745 
47350 0.974791 
47400 0.974836 
47450 0.974882 
47500 0.974928 
47550 0.974974 
47600 0.97502 
47650 0.975066 
47700 0.975112 
47750 0.975158 
47800 0.975204 
47850 0.97525 
47900 0.975296 
47950 0.975342 
48000 0.975387 
48050 0.97543 
48100 0.975473 
48150 0.975515 
48200 0.975558 
48250 0.975601 
48300 0.975643 
48350 0.975686 
48400 0.975729 
48450 0.975771 
48500 0.975814 
48550 0.975857 
48600 0.975899 
48650 0.975942 
48700 0.975985 
48750 0.976027 
48800 0.97607 
48850 0.976112 
48900 0.976155 
48950 0.976197 
49000 0.976236 
49050 0.976276 
49100 0.976315 
49150 0.976355 
49200 0.976395 
49250 0.976434 
49300 0.976474 
49350 0.976513 
49400 0.976553 
49450 0.976592 
49500 0.976632 
49550 0.976672 
49600 0.976711 
49650 0.976751 
49700 0.97679 
49750 0.97683 
49800 0.97687 
49850 0.976909 
49900 0.976948 
49950 0.976985 
50000 0.977022 
50050 0.977058 
50100 0.977095 
50150 0.977132 
50200 0.977169 
50250 0.977205 
50300 0.977242 
50350 0.977279 
50400 0.977316 
50450 0.977352 
50500 0.977389 
50550 0.977426 
50600 0.977463 
50650 0.977499 
50700 0.977536 
50750 0.977573 
50800 0.97761 
50850 0.977647 
50900 0.977681 
50950 0.977715 
51000 0.97775 
51050 0.977784 
51100 0.977818 
51150 0.977852 
51200 0.977886 
51250 0.97792 
51300 0.977954 
51350 0.977989 
51400 0.978023 
51450 0.978057 
51500 0.978091 
51550 0.978125 
51600 0.978159 
51650 0.978193 
51700 0.978227 
51750 0.978262 
51800 0.978296 
51850 0.97833 
51900 0.978362 
51950 0.978394 
52000 0.978425 
52050 0.978457 
52100 0.978489 
52150 0.978521 
52200 0.978552 
52250 0.978584 
52300 0.978616 
52350 0.978647 
52400 0.978679 
52450 0.978711 
52500 0.978742 
52550 0.978774 
52600 0.978806 
52650 0.978838 
52700 0.978869 
52750 0.978901 
52800 0.978933 
52850 0.978964 
52900 0.978995 
52950 0.979024 
53000 0.979054 
53050 0.979083 
53100 0.979113 
53150 0.979142 
53200 0.979171 
53250 0.979201 
53300 0.97923 
53350 0.97926 
53400 0.979289 
53450 0.979319 
53500 0.979348 
53550 0.979378 
53600 0.979407 
53650 0.979436 
53700 0.979466 
53750 0.979495 
53800 0.979525 
53850 0.979554 
53900 0.979584 
53950 0.979611 
54000 0.979639 
54050 0.979666 
54100 0.979693 
54150 0.979721 
54200 0.979748 
54250 0.979775 
54300 0.979803 
54350 0.97983 
54400 0.979857 
54450 0.979885 
54500 0.979912 
54550 0.97994 
54600 0.979967 
54650 0.979994 
54700 0.980022 
54750 0.980049 
54800 0.980076 
54850 0.980104 
54900 0.980131 
54950 0.980158 
55000 0.980184 
55050 0.98021 
55100 0.980235 
55150 0.98026 
55200 0.980286 
55250 0.980311 
55300 0.980337 
55350 0.980362 
55400 0.980388 
55450 0.980413 
55500 0.980438 
55550 0.980464 
55600 0.980489 
55650 0.980515 
55700 0.98054 
55750 0.980565 
55800 0.980591 
55850 0.980616 
55900 0.980642 
55950 0.980667 
56000 0.980693 
56050 0.980717 
56100 0.980741 
56150 0.980765 
56200 0.980788 
56250 0.980812 
56300 0.980836 
56350 0.980859 
56400 0.980883 
56450 0.980906 
56500 0.98093 
56550 0.980954 
56600 0.980977 
56650 0.981001 
56700 0.981025 
56750 0.981048 
56800 0.981072 
56850 0.981095 
56900 0.981119 
56950 0.981143 
57000 0.981166 
57050 0.98119 
57100 0.981214 
57150 0.981237 
57200 0.981259 
57250 0.981281 
57300 0.981302 
57350 0.981324 
57400 0.981346 
57450 0.981368 
57500 0.98139 
57550 0.981412 
57600 0.981434 
57650 0.981456 
57700 0.981478 
57750 0.9815 
57800 0.981522 
57850 0.981544 
57900 0.981566 
57950 0.981588 
58000 0.98161 
58050 0.981632 
58100 0.981654 
58150 0.981676 
58200 0.981698 
58250 0.98172 
58300 0.98174 
58350 0.981761 
58400 0.981781 
58450 0.981801 
58500 0.981822 
58550 0.981842 
58600 0.981863 
58650 0.981883 
58700 0.981904 
58750 0.981924 
58800 0.981944 
58850 0.981965 
58900 0.981985 
58950 0.982006 
59000 0.982026 
59050 0.982047 
59100 0.982067 
59150 0.982087 
59200 0.982108 
59250 0.982128 
59300 0.982149 
59350 0.982169 
59400 0.982189 
59450 0.982208 
59500 0.982227 
59550 0.982246 
59600 0.982265 
59650 0.982284 
59700 0.982303 
59750 0.982322 
59800 0.982341 
59850 0.98236 
59900 0.982379 
59950 0.982398 
60000 0.982417 
60050 0.982436 
60100 0.982455 
60150 0.982474 
60200 0.982493 
60250 0.982512 
60300 0.982531 
60350 0.98255 
60400 0.982569 
60450 0.982588 
60500 0.982607 
60550 0.982626 
60600 0.982644 
60650 0.982661 
60700 0.982679 
60750 0.982697 
60800 0.982714 
60850 0.982732 
60900 0.98275 
60950 0.982768 
61000 0.982785 
61050 0.982803 
61100 0.982821 
61150 0.982838 
61200 0.982856 
61250 0.982874 
61300 0.982891 
61350 0.982909 
61400 0.982927 
61450 0.982944 
61500 0.982962 
61550 0.98298 
61600 0.982997 
61650 0.983015 
61700 0.983033 
61750 0.98305 
61800 0.983066 
61850 0.983083 
61900 0.983099 
61950 0.983116 
62000 0.983132 
62050 0.983149 
62100 0.983165 
62150 0.983182 
62200 0.983198 
62250 0.983214 
62300 0.983231 
62350 0.983247 
62400 0.983264 
62450 0.98328 
62500 0.983297 
62550 0.983313 
62600 0.98333 
62650 0.983346 
62700 0.983363 
62750 0.983379 
62800 0.983395 
62850 0.983412 
62900 0.983428 
62950 0.983445 
63000 0.98346 
63050 0.983475 
63100 0.983491 
63150 0.983506 
63200 0.983521 
63250 0.983536 
63300 0.983552 
63350 0.983567 
63400 0.983582 
63450 0.983598 
63500 0.983613 
63550 0.983628 
63600 0.983644 
63650 0.983659 
63700 0.983674 
63750 0.98369 
63800 0.983705 
63850 0.98372 
63900 0.983736 
63950 0.983751 
64000 0.983766 
64050 0.983782 
64100 0.983797 
64150 0.983812 
64200 0.983827 
64250 0.983841 
64300 0.983856 
64350 0.98387 
64400 0.983884 
64450 0.983898 
64500 0.983913 
64550 0.983927 
64600 0.983941 
64650 0.983955 
64700 0.98397 
64750 0.983984 
64800 0.983998 
64850 0.984013 
64900 0.984027 
64950 0.984041 
65000 0.984055 
65050 0.98407 
65100 0.984084 
65150 0.984098 
65200 0.984112 
65250 0.984127 
65300 0.984141 
65350 0.984155 
65400 0.98417 
65450 0.984183 
65500 0.984197 
65550 0.98421 
65600 0.984223 
65650 0.984237 
65700 0.98425 
65750 0.984263 
65800 0.984276 
65850 0.98429 
65900 0.984303 
65950 0.984316 
66000 0.98433 
66050 0.984343 
66100 0.984356 
66150 0.98437 
66200 0.984383 
66250 0.984396 
66300 0.984409 
66350 0.984423 
66400 0.984436 
66450 0.984449 
66500 0.984463 
66550 0.984476 
66600 0.984489 
66650 0.984503 
66700 0.984516 
66750 0.984528 
66800 0.984541 
66850 0.984553 
66900 0.984565 
66950 0.984578 
67000 0.98459 
67050 0.984603 
67100 0.984615 
67150 0.984628 
67200 0.98464 
67250 0.984652 
67300 0.984665 
67350 0.984677 
67400 0.98469 
67450 0.984702 
67500 0.984714 
67550 0.984727 
67600 0.984739 
67650 0.984752 
67700 0.984764 
67750 0.984776 
67800 0.984789 
67850 0.984801 
67900 0.984814 
67950 0.984826 
68000 0.984838 
68050 0.98485 
68100 0.984862 
68150 0.984873 
68200 0.984885 
68250 0.984896 
68300 0.984908 
68350 0.984919 
68400 0.984931 
68450 0.984943 
68500 0.984954 
68550 0.984966 
68600 0.984977 
68650 0.984989 
68700 0.985 
68750 0.985012 
68800 0.985024 
68850 0.985035 
68900 0.985047 
68950 0.985058 
69000 0.98507 
69050 0.985081 
69100 0.985093 
69150 0.985105 
69200 0.985116 
69250 0.985128 
69300 0.985139 
69350 0.985151 
69400 0.985161 
69450 0.985172 
69500 0.985183 
69550 0.985194 
69600 0.985205 
69650 0.985215 
69700 0.985226 
69750 0.985237 
69800 0.985248 
69850 0.985259 
69900 0.985269 
69950 0.98528 
70000 0.985291 
70050 0.985302 
70100 0.985313 
70150 0.985323 
70200 0.985334 
70250 0.985345 
70300 0.985356 
70350 0.985367 
70400 0.985377 
70450 0.985388 
70500 0.985399 
70550 0.98541 
70600 0.985421 
70650 0.985431 
70700 0.985442 
70750 0.985452 
70800 0.985462 
70850 0.985472 
70900 0.985482 
70950 0.985492 
71000 0.985503 
71050 0.985513 
71100 0.985523 
71150 0.985533 
71200 0.985543 
71250 0.985553 
71300 0.985563 
71350 0.985573 
71400 0.985583 
71450 0.985593 
71500 0.985603 
71550 0.985613 
71600 0.985623 
71650 0.985634 
71700 0.985644 
71750 0.985654 
71800 0.985664 
71850 0.985674 
71900 0.985684 
71950 0.985694 
72000 0.985704 
72050 0.985714 
72100 0.985724 
72150 0.985733 
72200 0.985743 
72250 0.985752 
72300 0.985762 
72350 0.985771 
72400 0.98578 
72450 0.98579 
72500 0.985799 
72550 0.985809 
72600 0.985818 
72650 0.985828 
72700 0.985837 
72750 0.985846 
72800 0.985856 
72850 0.985865 
72900 0.985875 
72950 0.985884 
73000 0.985893 
73050 0.985903 
73100 0.985912 
73150 0.985922 
73200 0.985931 
73250 0.985941 
73300 0.98595 
73350 0.985959 
73400 0.985969 
73450 0.985978 
73500 0.985987 
73550 0.985996 
73600 0.986005 
73650 0.986014 
73700 0.986023 
73750 0.986031 
73800 0.98604 
73850 0.986049 
73900 0.986058 
73950 0.986067 
74000 0.986076 
74050 0.986084 
74100 0.986093 
74150 0.986102 
74200 0.986111 
74250 0.98612 
74300 0.986128 
74350 0.986137 
74400 0.986146 
74450 0.986155 
74500 0.986164 
74550 0.986172 
74600 0.986181 
74650 0.98619 
74700 0.986199 
74750 0.986208 
74800 0.986216 
74850 0.986225 
74900 0.986234 
74950 0.986242 
75000 0.986251 
75050 0.986259 
75100 0.986267 
75150 0.986275 
75200 0.986284 
75250 0.986292 
75300 0.9863 
75350 0.986308 
75400 0.986317 
75450 0.986325 
75500 0.986333 
75550 0.986341 
75600 0.986349 
75650 0.986358 
75700 0.986366 
75750 0.986374 
75800 0.986382 
75850 0.986391 
75900 0.986399 
75950 0.986407 
76000 0.986415 
76050 0.986424 
76100 0.986432 
76150 0.98644 
76200 0.986448 
76250 0.986457 
76300 0.986465 
76350 0.986473 
76400 0.986481 
76450 0.986489 
76500 0.986496 
76550 0.986504 
76600 0.986512 
76650 0.98652 
76700 0.986527 
76750 0.986535 
76800 0.986543 
76850 0.98655 
76900 0.986558 
76950 0.986566 
77000 0.986574 
77050 0.986581 
77100 0.986589 
77150 0.986597 
77200 0.986604 
77250 0.986612 
77300 0.98662 
77350 0.986627 
77400 0.986635 
77450 0.986643 
77500 0.986651 
77550 0.986658 
77600 0.986666 
77650 0.986674 
77700 0.986681 
77750 0.986689 
77800 0.986697 
77850 0.986705 
77900 0.986712 
77950 0.986719 
78000 0.986727 
78050 0.986734 
78100 0.986741 
78150 0.986748 
78200 0.986755 
78250 0.986763 
78300 0.98677 
78350 0.986777 
78400 0.986784 
78450 0.986791 
78500 0.986799 
78550 0.986806 
78600 0.986813 
78650 0.98682 
78700 0.986828 
78750 0.986835 
78800 0.986842 
78850 0.986849 
78900 0.986856 
78950 0.986864 
79000 0.986871 
79050 0.986878 
79100 0.986885 
79150 0.986893 
79200 0.9869 
79250 0.986907 
79300 0.986914 
79350 0.986921 
79400 0.986929 
79450 0.986935 
79500 0.986942 
79550 0.986949 
79600 0.986956 
79650 0.986962 
79700 0.986969 
79750 0.986976 
79800 0.986983 
79850 0.986989 
79900 0.986996 
79950 0.987003 
80000 0.98701 
80050 0.987016 
80100 0.987023 
80150 0.98703 
80200 0.987037 
80250 0.987044 
80300 0.98705 
80350 0.987057 
80400 0.987064 
80450 0.987071 
80500 0.987077 
80550 0.987084 
80600 0.987091 
80650 0.987098 
80700 0.987104 
80750 0.987111 
80800 0.987118 
80850 0.987125 
80900 0.987131 
80950 0.987138 
81000 0.987145 
81050 0.987151 
81100 0.987157 
81150 0.987164 
81200 0.98717 
81250 0.987176 
81300 0.987183 
81350 0.987189 
81400 0.987195 
81450 0.987202 
81500 0.987208 
81550 0.987214 
81600 0.987221 
81650 0.987227 
81700 0.987233 
81750 0.98724 
81800 0.987246 
81850 0.987252 
81900 0.987259 
81950 0.987265 
82000 0.987271 
82050 0.987278 
82100 0.987284 
82150 0.98729 
82200 0.987297 
82250 0.987303 
82300 0.987309 
82350 0.987316 
82400 0.987322 
82450 0.987329 
82500 0.987335 
82550 0.987341 
82600 0.987347 
82650 0.987353 
82700 0.987359 
82750 0.987365 
82800 0.987371 
82850 0.987377 
82900 0.987383 
82950 0.987389 
83000 0.987395 
83050 0.987401 
83100 0.987407 
83150 0.987413 
83200 0.987418 
83250 0.987424 
83300 0.98743 
83350 0.987436 
83400 0.987442 
83450 0.987448 
83500 0.987454 
83550 0.98746 
83600 0.987466 
83650 0.987472 
83700 0.987478 
83750 0.987484 
83800 0.98749 
83850 0.987496 
83900 0.987502 
83950 0.987508 
84000 0.987514 
84050 0.98752 
84100 0.987526 
84150 0.987532 
84200 0.987537 
84250 0.987543 
84300 0.987548 
84350 0.987554 
84400 0.987559 
84450 0.987565 
84500 0.987571 
84550 0.987576 
84600 0.987582 
84650 0.987587 
84700 0.987593 
84750 0.987599 
84800 0.987604 
84850 0.98761 
84900 0.987615 
84950 0.987621 
85000 0.987627 
85050 0.987632 
85100 0.987638 
85150 0.987643 
85200 0.987649 
85250 0.987655 
85300 0.98766 
85350 0.987666 
85400 0.987671 
85450 0.987677 
85500 0.987682 
85550 0.987688 
85600 0.987694 
85650 0.987699 
85700 0.987705 
85750 0.98771 
85800 0.987716 
85850 0.987721 
85900 0.987726 
85950 0.987732 
86000 0.987737 
86050 0.987742 
86100 0.987747 
86150 0.987753 
86200 0.987758 
86250 0.987763 
86300 0.987768 
86350 0.987774 
86400 0.987779 
86450 0.987784 
86500 0.987789 
86550 0.987795 
86600 0.9878 
86650 0.987805 
86700 0.98781 
86750 0.987816 
86800 0.987821 
86850 0.987826 
86900 0.987831 
86950 0.987837 
87000 0.987842 
87050 0.987847 
87100 0.987853 
87150 0.987858 
87200 0.987863 
87250 0.987868 
87300 0.987873 
87350 0.987879 
87400 0.987884 
87450 0.987889 
87500 0.987894 
87550 0.987899 
87600 0.987904 
87650 0.987909 
87700 0.987914 
87750 0.987919 
87800 0.987924 
87850 0.987929 
87900 0.987934 
87950 0.987939 
88000 0.987944 
88050 0.987949 
88100 0.987954 
88150 0.987959 
88200 0.987963 
88250 0.987968 
88300 0.987973 
88350 0.987978 
88400 0.987983 
88450 0.987988 
88500 0.987993 
88550 0.987998 
88600 0.988003 
88650 0.988008 
88700 0.988013 
88750 0.988018 
88800 0.988023 
88850 0.988028 
88900 0.988033 
88950 0.988038 
89000 0.988042 
89050 0.988047 
89100 0.988052 
89150 0.988057 
89200 0.988062 
89250 0.988067 
89300 0.988071 
89350 0.988076 
89400 0.988081 
89450 0.988085 
89500 0.98809 
89550 0.988095 
89600 0.988099 
89650 0.988104 
89700 0.988109 
89750 0.988113 
89800 0.988118 
89850 0.988123 
89900 0.988127 
89950 0.988132 
90000 0.988137 
90050 0.988141 
90100 0.988146 
90150 0.98815 
90200 0.988155 
90250 0.98816 
90300 0.988164 
90350 0.988169 
90400 0.988174 
90450 0.988178 
90500 0.988183 
90550 0.988188 
90600 0.988192 
90650 0.988197 
90700 0.988202 
90750 0.988206 
90800 0.988211 
90850 0.988216 
90900 0.98822 
90950 0.988225 
91000 0.988229 
91050 0.988233 
91100 0.988238 
91150 0.988242 
91200 0.988247 
91250 0.988251 
91300 0.988255 
91350 0.98826 
91400 0.988264 
91450 0.988268 
91500 0.988273 
91550 0.988277 
91600 0.988282 
91650 0.988286 
91700 0.98829 
91750 0.988295 
91800 0.988299 
91850 0.988303 
91900 0.988308 
91950 0.988312 
92000 0.988317 
92050 0.988321 
92100 0.988325 
92150 0.98833 
92200 0.988334 
92250 0.988339 
92300 0.988343 
92350 0.988347 
92400 0.988352 
92450 0.988356 
92500 0.98836 
92550 0.988365 
92600 0.988369 
92650 0.988374 
92700 0.988378 
92750 0.988382 
92800 0.988386 
92850 0.98839 
92900 0.988394 
92950 0.988399 
93000 0.988403 
93050 0.988407 
93100 0.988411 
93150 0.988415 
93200 0.988419 
93250 0.988423 
93300 0.988427 
93350 0.988432 
93400 0.988436 
93450 0.98844 
93500 0.988444 
93550 0.988448 
93600 0.988452 
93650 0.988456 
93700 0.98846 
93750 0.988465 
93800 0.988469 
93850 0.988473 
93900 0.988477 
93950 0.988481 
94000 0.988485 
94050 0.988489 
94100 0.988494 
94150 0.988498 
94200 0.988502 
94250 0.988506 
94300 0.98851 
94350 0.988514 
94400 0.988518 
94450 0.988522 
94500 0.988527 
94550 0.98853 
94600 0.988534 
94650 0.988538 
94700 0.988542 
94750 0.988546 
94800 0.98855 
94850 0.988554 
94900 0.988558 
94950 0.988562 
95000 0.988566 
95050 0.988569 
95100 0.988573 
95150 0.988577 
95200 0.988581 
95250 0.988585 
95300 0.988589 
95350 0.988593 
95400 0.988597 
95450 0.988601 
95500 0.988604 
95550 0.988608 
95600 0.988612 
95650 0.988616 
95700 0.98862 
95750 0.988624 
95800 0.988628 
95850 0.988632 
95900 0.988636 
95950 0.988639 
96000 0.988643 
96050 0.988647 
96100 0.988651 
96150 0.988655 
96200 0.988659 
96250 0.988663 
96300 0.988667 
96350 0.988671 
96400 0.988674 
96450 0.988678 
96500 0.988682 
96550 0.988685 
96600 0.988689 
96650 0.988693 
96700 0.988696 
96750 0.9887 
96800 0.988704 
96850 0.988707 
96900 0.988711 
96950 0.988715 
97000 0.988719 
97050 0.988722 
97100 0.988726 
97150 0.98873 
97200 0.988733 
97250 0.988737 
97300 0.988741 
97350 0.988744 
97400 0.988748 
97450 0.988752 
97500 0.988755 
97550 0.988759 
97600 0.988763 
97650 0.988766 
97700 0.98877 
97750 0.988774 
97800 0.988777 
97850 0.988781 
97900 0.988785 
97950 0.988788 
98000 0.988792 
98050 0.988796 
98100 0.988799 
98150 0.988803 
98200 0.988807 
98250 0.98881 
98300 0.988814 
98350 0.988817 
98400 0.988821 
98450 0.988824 
98500 0.988828 
98550 0.988831 
98600 0.988835 
98650 0.988838 
98700 0.988842 
98750 0.988845 
98800 0.988849 
98850 0.988852 
98900 0.988856 
98950 0.988859 
99000 0.988862 
99050 0.988866 
99100 0.988869 
99150 0.988873 
99200 0.988876 
99250 0.98888 
99300 0.988883 
99350 0.988887 
99400 0.98889 
99450 0.988894 
99500 0.988897 
99550 0.988901 
99600 0.988904 
99650 0.988908 
99700 0.988911 
99750 0.988915 
99800 0.988918 
99850 0.988922 
99900 0.988925 
99950 0.988928 
100000 0.988932 
