#F U:\Beamline I20\!M2 and filters heat load\xop\SiC-0p4mm.dat
#C SiC - 0.4mm - normalized
#S 1 File written by xplot on Fri Mar 06 14:47:04 2009
#N 2
#L    Photon Energy [eV]  Intens after oe #1
50 0 
100 0 
150 0 
200 0 
250 0 
300 0 
350 0 
400 0 
450 0 
500 0 
550 0 
600 0 
650 0 
700 0 
750 0 
800 0 
850 0 
900 0 
950 0 
1000 0 
1050 0 
1100 0 
1150 0 
1200 0 
1250 0 
1300 0 
1350 4.34403E-044 
1400 5.35751E-040 
1450 2.06951E-036 
1500 3.0281E-033 
1550 1.94928E-030 
1600 6.14351E-028 
1650 1.05008E-025 
1700 9.92703E-024 
1750 6.08588E-022 
1800 2.35296E-020 
1850 0 
1900 0 
1950 0 
2000 0 
2050 0 
2100 0 
2150 0 
2200 0 
2250 0 
2300 0 
2350 0 
2400 0 
2450 0 
2500 0 
2550 0 
2600 0 
2650 0 
2700 0 
2750 0 
2800 0 
2850 0 
2900 2.66247E-044 
2950 3.04222E-042 
3000 2.43022E-040 
3050 1.44523E-038 
3100 6.58698E-037 
3150 2.36093E-035 
3200 6.81E-034 
3250 1.59381E-032 
3300 2.98714E-031 
3350 4.78135E-030 
3400 6.62956E-029 
3450 8.06173E-028 
3500 8.286E-027 
3550 7.58893E-026 
3600 6.30609E-025 
3650 4.74457E-024 
3700 3.14149E-023 
3750 1.93468E-022 
3800 1.11353E-021 
3850 5.74005E-021 
3900 2.78672E-020 
3950 1.28501E-019 
4000 5.39659E-019 
4050 2.16372E-018 
4100 8.28695E-018 
4150 2.92884E-017 
4200 1.0017E-016 
4250 3.24075E-016 
4300 9.94218E-016 
4350 2.9732E-015 
4400 8.27629E-015 
4450 2.25381E-014 
4500 5.85769E-014 
4550 1.4658E-013 
4600 3.57095E-013 
4650 8.27793E-013 
4700 1.89615E-012 
4750 4.10587E-012 
4800 8.80653E-012 
4850 1.8077E-011 
4900 3.65442E-011 
4950 7.13451E-011 
5000 1.36732E-010 
5050 2.54698E-010 
5100 4.65281E-010 
5150 8.29693E-010 
5200 1.45206E-009 
5250 2.48624E-009 
5300 4.18744E-009 
5350 6.9044E-009 
5400 1.12365E-008 
5450 1.7889E-008 
5500 2.82318E-008 
5550 4.3503E-008 
5600 6.67866E-008 
5650 9.98469E-008 
5700 1.49273E-007 
5750 2.17357E-007 
5800 3.15917E-007 
5850 4.50758E-007 
5900 6.38197E-007 
5950 8.94162E-007 
6000 1.23558E-006 
6050 1.70299E-006 
6100 2.30038E-006 
6150 3.10734E-006 
6200 4.13165E-006 
6250 5.46466E-006 
6300 7.17965E-006 
6350 9.31107E-006 
6400 1.20752E-005 
6450 1.54094E-005 
6500 1.96219E-005 
6550 2.48259E-005 
6600 3.10783E-005 
6650 3.89053E-005 
6700 4.8072E-005 
6750 5.92321E-005 
6800 7.27476E-005 
6850 8.83246E-005 
6900 0.000107237 
6950 0.000129194 
7000 0.000154716 
7050 0.000185282 
7100 0.000219469 
7150 0.000259492 
7200 0.000306455 
7250 0.00035806 
7300 0.000418352 
7350 0.000487262 
7400 0.00056304 
7450 0.000650604 
7500 0.00074859 
7550 0.000856181 
7600 0.000979237 
7650 0.00111472 
7700 0.00126278 
7750 0.00143051 
7800 0.00161319 
7850 0.00181128 
7900 0.00203368 
7950 0.00227457 
8000 0.00253282 
8050 0.00282041 
8100 0.00313174 
8150 0.00346064 
8200 0.00382407 
8250 0.00421937 
8300 0.00462927 
8350 0.00507899 
8400 0.0055724 
8450 0.00607372 
8500 0.00661957 
8550 0.00721447 
8600 0.00782888 
8650 0.00848001 
8700 0.00918528 
8750 0.00992906 
8800 0.0106932 
8850 0.011516 
8900 0.0124023 
8950 0.0132901 
9000 0.0142369 
9050 0.015251 
9100 0.0163005 
9150 0.0173752 
9200 0.0185208 
9250 0.0197419 
9300 0.0209559 
9350 0.022235 
9400 0.0235922 
9450 0.0250015 
9500 0.0264142 
9550 0.0279067 
9600 0.0294835 
9650 0.0310757 
9700 0.0327015 
9750 0.0344123 
9800 0.0362127 
9850 0.0379899 
9900 0.03983 
9950 0.0417594 
10000 0.0437822 
10050 0.0457461 
10100 0.0477981 
10150 0.0499422 
10200 0.0521674 
10250 0.0543335 
10300 0.0565896 
10350 0.0589393 
10400 0.0613682 
10450 0.0637292 
10500 0.066181 
10550 0.0687271 
10600 0.0713637 
10650 0.0739058 
10700 0.0765384 
10750 0.0792649 
10800 0.0820884 
10850 0.0848189 
10900 0.0876164 
10950 0.0905063 
11000 0.0934914 
11050 0.0964234 
11100 0.0993697 
11150 0.102406 
11200 0.105535 
11250 0.108674 
11300 0.111749 
11350 0.114912 
11400 0.118164 
11450 0.121508 
11500 0.1247 
11550 0.127968 
11600 0.131322 
11650 0.134764 
11700 0.138168 
11750 0.141523 
11800 0.144958 
11850 0.148478 
11900 0.152082 
11950 0.155522 
12000 0.159018 
12050 0.162592 
12100 0.166247 
12150 0.169911 
12200 0.17345 
12250 0.177062 
12300 0.18075 
12350 0.184514 
12400 0.188209 
12450 0.19184 
12500 0.195542 
12550 0.199314 
12600 0.20316 
12650 0.206881 
12700 0.210577 
12750 0.214338 
12800 0.218167 
12850 0.222065 
12900 0.225813 
12950 0.22955 
13000 0.233349 
13050 0.23721 
13100 0.241136 
13150 0.244914 
13200 0.248669 
13250 0.25248 
13300 0.25635 
13350 0.260279 
13400 0.264095 
13450 0.267845 
13500 0.271648 
13550 0.275505 
13600 0.279417 
13650 0.283277 
13700 0.287002 
13750 0.290777 
13800 0.2946 
13850 0.298474 
13900 0.302389 
13950 0.306071 
14000 0.309798 
14050 0.31357 
14100 0.317388 
14150 0.321252 
14200 0.324991 
14250 0.328656 
14300 0.332362 
14350 0.33611 
14400 0.3399 
14450 0.343718 
14500 0.347309 
14550 0.350937 
14600 0.354604 
14650 0.358309 
14700 0.362052 
14750 0.365721 
14800 0.369259 
14850 0.372831 
14900 0.376438 
14950 0.380079 
15000 0.383756 
15050 0.38729 
15100 0.390758 
15150 0.394258 
15200 0.397789 
15250 0.401351 
15300 0.404945 
15350 0.408366 
15400 0.411755 
15450 0.415171 
15500 0.418616 
15550 0.42209 
15600 0.425592 
15650 0.428916 
15700 0.43221 
15750 0.435529 
15800 0.438874 
15850 0.442245 
15900 0.445641 
15950 0.448891 
16000 0.452084 
16050 0.455299 
16100 0.458538 
16150 0.461799 
16200 0.465084 
16250 0.46828 
16300 0.471364 
16350 0.474469 
16400 0.477595 
16450 0.480741 
16500 0.483907 
16550 0.487068 
16600 0.490037 
16650 0.493025 
16700 0.496031 
16750 0.499055 
16800 0.502098 
16850 0.505159 
16900 0.508092 
16950 0.51096 
17000 0.513845 
17050 0.516746 
17100 0.519663 
17150 0.522597 
17200 0.525536 
17250 0.528282 
17300 0.531042 
17350 0.533817 
17400 0.536606 
17450 0.53941 
17500 0.542228 
17550 0.544994 
17600 0.547631 
17650 0.550281 
17700 0.552943 
17750 0.555618 
17800 0.558307 
17850 0.561008 
17900 0.563628 
17950 0.566151 
18000 0.568686 
18050 0.571232 
18100 0.57379 
18150 0.576358 
18200 0.578939 
18250 0.58144 
18300 0.583851 
18350 0.586271 
18400 0.588702 
18450 0.591143 
18500 0.593594 
18550 0.596055 
18600 0.598462 
18650 0.600758 
18700 0.603062 
18750 0.605376 
18800 0.607698 
18850 0.610029 
18900 0.612369 
18950 0.614704 
19000 0.616888 
19050 0.619078 
19100 0.621277 
19150 0.623484 
19200 0.625698 
19250 0.62792 
19300 0.63015 
19350 0.632276 
19400 0.634354 
19450 0.636439 
19500 0.638531 
19550 0.64063 
19600 0.642735 
19650 0.644848 
19700 0.646949 
19750 0.648916 
19800 0.65089 
19850 0.65287 
19900 0.654855 
19950 0.656847 
20000 0.658845 
20050 0.660848 
20100 0.662796 
20150 0.664662 
20200 0.666534 
20250 0.66841 
20300 0.670292 
20350 0.672179 
20400 0.674071 
20450 0.675969 
20500 0.677792 
20550 0.679558 
20600 0.681329 
20650 0.683104 
20700 0.684884 
20750 0.686669 
20800 0.688458 
20850 0.690252 
20900 0.691975 
20950 0.693643 
21000 0.695316 
21050 0.696992 
21100 0.698673 
21150 0.700357 
21200 0.702046 
21250 0.703739 
21300 0.705385 
21350 0.706959 
21400 0.708536 
21450 0.710117 
21500 0.711701 
21550 0.713289 
21600 0.71488 
21650 0.716475 
21700 0.718064 
21750 0.719547 
21800 0.721033 
21850 0.722522 
21900 0.724014 
21950 0.725509 
22000 0.727007 
22050 0.728508 
22100 0.730013 
22150 0.731453 
22200 0.732851 
22250 0.734251 
22300 0.735655 
22350 0.73706 
22400 0.738469 
22450 0.73988 
22500 0.741294 
22550 0.74271 
22600 0.744029 
22650 0.745345 
22700 0.746663 
22750 0.747983 
22800 0.749305 
22850 0.75063 
22900 0.751957 
22950 0.753286 
23000 0.754606 
23050 0.755841 
23100 0.757078 
23150 0.758317 
23200 0.759558 
23250 0.760801 
23300 0.762046 
23350 0.763293 
23400 0.764542 
23450 0.765781 
23500 0.76694 
23550 0.768101 
23600 0.769264 
23650 0.770429 
23700 0.771595 
23750 0.772763 
23800 0.773933 
23850 0.775105 
23900 0.776279 
23950 0.77737 
24000 0.778459 
24050 0.77955 
24100 0.780643 
24150 0.781737 
24200 0.782833 
24250 0.78393 
24300 0.785028 
24350 0.786129 
24400 0.78718 
24450 0.7882 
24500 0.789222 
24550 0.790245 
24600 0.79127 
24650 0.792296 
24700 0.793323 
24750 0.794352 
24800 0.795381 
24850 0.796406 
24900 0.797362 
24950 0.798319 
25000 0.799277 
25050 0.800236 
25100 0.801196 
25150 0.802157 
25200 0.80312 
25250 0.804084 
25300 0.805048 
25350 0.805988 
25400 0.806883 
25450 0.807779 
25500 0.808676 
25550 0.809573 
25600 0.810472 
25650 0.811372 
25700 0.812273 
25750 0.813175 
25800 0.814078 
25850 0.814951 
25900 0.815788 
25950 0.816626 
26000 0.817465 
26050 0.818305 
26100 0.819146 
26150 0.819988 
26200 0.82083 
26250 0.821673 
26300 0.822518 
26350 0.82334 
26400 0.824123 
26450 0.824906 
26500 0.825691 
26550 0.826476 
26600 0.827262 
26650 0.828049 
26700 0.828836 
26750 0.829624 
26800 0.830413 
26850 0.831199 
26900 0.83193 
26950 0.832662 
27000 0.833395 
27050 0.834128 
27100 0.834862 
27150 0.835597 
27200 0.836332 
27250 0.837068 
27300 0.837804 
27350 0.838541 
27400 0.839248 
27450 0.839931 
27500 0.840615 
27550 0.841299 
27600 0.841984 
27650 0.84267 
27700 0.843356 
27750 0.844043 
27800 0.84473 
27850 0.845418 
27900 0.846106 
27950 0.84675 
28000 0.847388 
28050 0.848027 
28100 0.848666 
28150 0.849305 
28200 0.849945 
28250 0.850585 
28300 0.851226 
28350 0.851867 
28400 0.852509 
28450 0.853151 
28500 0.853748 
28550 0.854344 
28600 0.854939 
28650 0.855535 
28700 0.856132 
28750 0.856729 
28800 0.857326 
28850 0.857924 
28900 0.858522 
28950 0.859121 
29000 0.85972 
29050 0.860282 
29100 0.860837 
29150 0.861393 
29200 0.861949 
29250 0.862505 
29300 0.863061 
29350 0.863618 
29400 0.864175 
29450 0.864733 
29500 0.865291 
29550 0.865849 
29600 0.866388 
29650 0.866905 
29700 0.867423 
29750 0.867941 
29800 0.868459 
29850 0.868978 
29900 0.869497 
29950 0.870016 
30000 0.870536 
30050 0.871055 
30100 0.871576 
30150 0.872096 
30200 0.872581 
30250 0.873063 
30300 0.873546 
30350 0.874028 
30400 0.874511 
30450 0.874995 
30500 0.875478 
30550 0.875962 
30600 0.876446 
30650 0.87693 
30700 0.877415 
30750 0.877895 
30800 0.878344 
30850 0.878793 
30900 0.879243 
30950 0.879692 
31000 0.880142 
31050 0.880592 
31100 0.881042 
31150 0.881493 
31200 0.881944 
31250 0.882395 
31300 0.882846 
31350 0.883294 
31400 0.883712 
31450 0.88413 
31500 0.884548 
31550 0.884967 
31600 0.885386 
31650 0.885804 
31700 0.886224 
31750 0.886643 
31800 0.887063 
31850 0.887482 
31900 0.887902 
31950 0.888322 
32000 0.888716 
32050 0.889105 
32100 0.889495 
32150 0.889884 
32200 0.890274 
32250 0.890664 
32300 0.891054 
32350 0.891444 
32400 0.891834 
32450 0.892225 
32500 0.892616 
32550 0.893007 
32600 0.893388 
32650 0.89375 
32700 0.894112 
32750 0.894474 
32800 0.894837 
32850 0.8952 
32900 0.895563 
32950 0.895926 
33000 0.896289 
33050 0.896652 
33100 0.897015 
33150 0.897379 
33200 0.897743 
33250 0.89809 
33300 0.898427 
33350 0.898764 
33400 0.899101 
33450 0.899438 
33500 0.899776 
33550 0.900113 
33600 0.900451 
33650 0.900788 
33700 0.901126 
33750 0.901464 
33800 0.901802 
33850 0.90214 
33900 0.902463 
33950 0.902777 
34000 0.90309 
34050 0.903404 
34100 0.903717 
34150 0.904031 
34200 0.904345 
34250 0.904659 
34300 0.904973 
34350 0.905287 
34400 0.905601 
34450 0.905916 
34500 0.90623 
34550 0.906536 
34600 0.906827 
34650 0.907119 
34700 0.90741 
34750 0.907702 
34800 0.907993 
34850 0.908285 
34900 0.908577 
34950 0.908869 
35000 0.909161 
35050 0.909453 
35100 0.909745 
35150 0.910037 
35200 0.91033 
35250 0.910603 
35300 0.910874 
35350 0.911145 
35400 0.911416 
35450 0.911687 
35500 0.911958 
35550 0.91223 
35600 0.912501 
35650 0.912772 
35700 0.913044 
35750 0.913315 
35800 0.913587 
35850 0.913859 
35900 0.914128 
35950 0.91438 
36000 0.914632 
36050 0.914883 
36100 0.915135 
36150 0.915387 
36200 0.915639 
36250 0.915891 
36300 0.916143 
36350 0.916395 
36400 0.916648 
36450 0.9169 
36500 0.917152 
36550 0.917405 
36600 0.917656 
36650 0.91789 
36700 0.918124 
36750 0.918358 
36800 0.918592 
36850 0.918826 
36900 0.91906 
36950 0.919294 
37000 0.919529 
37050 0.919763 
37100 0.919997 
37150 0.920232 
37200 0.920466 
37250 0.920701 
37300 0.920936 
37350 0.921157 
37400 0.921374 
37450 0.921592 
37500 0.921809 
37550 0.922027 
37600 0.922244 
37650 0.922462 
37700 0.922679 
37750 0.922897 
37800 0.923114 
37850 0.923332 
37900 0.92355 
37950 0.923768 
38000 0.923986 
38050 0.924201 
38100 0.924403 
38150 0.924605 
38200 0.924807 
38250 0.925009 
38300 0.925211 
38350 0.925413 
38400 0.925615 
38450 0.925817 
38500 0.926019 
38550 0.926221 
38600 0.926424 
38650 0.926626 
38700 0.926828 
38750 0.927031 
38800 0.927229 
38850 0.927416 
38900 0.927604 
38950 0.927792 
39000 0.927979 
39050 0.928167 
39100 0.928354 
39150 0.928542 
39200 0.92873 
39250 0.928918 
39300 0.929106 
39350 0.929293 
39400 0.929481 
39450 0.929669 
39500 0.929857 
39550 0.930044 
39600 0.930218 
39650 0.930392 
39700 0.930566 
39750 0.93074 
39800 0.930915 
39850 0.931089 
39900 0.931263 
39950 0.931438 
40000 0.931612 
40050 0.931787 
40100 0.931961 
40150 0.932136 
40200 0.93231 
40250 0.932485 
40300 0.932659 
40350 0.932825 
40400 0.932987 
40450 0.933149 
40500 0.933311 
40550 0.933473 
40600 0.933634 
40650 0.933796 
40700 0.933958 
40750 0.93412 
40800 0.934282 
40850 0.934444 
40900 0.934606 
40950 0.934768 
41000 0.93493 
41050 0.935092 
41100 0.935254 
41150 0.935406 
41200 0.935556 
41250 0.935706 
41300 0.935856 
41350 0.936007 
41400 0.936157 
41450 0.936307 
41500 0.936458 
41550 0.936608 
41600 0.936759 
41650 0.936909 
41700 0.937059 
41750 0.93721 
41800 0.93736 
41850 0.937511 
41900 0.937661 
41950 0.937803 
42000 0.937943 
42050 0.938082 
42100 0.938222 
42150 0.938361 
42200 0.938501 
42250 0.93864 
42300 0.93878 
42350 0.93892 
42400 0.939059 
42450 0.939199 
42500 0.939339 
42550 0.939479 
42600 0.939618 
42650 0.939758 
42700 0.939898 
42750 0.940033 
42800 0.940163 
42850 0.940292 
42900 0.940422 
42950 0.940552 
43000 0.940681 
43050 0.940811 
43100 0.94094 
43150 0.94107 
43200 0.9412 
43250 0.941329 
43300 0.941459 
43350 0.941589 
43400 0.941719 
43450 0.941848 
43500 0.941978 
43550 0.942108 
43600 0.942231 
43650 0.942351 
43700 0.942472 
43750 0.942592 
43800 0.942712 
43850 0.942833 
43900 0.942953 
43950 0.943074 
44000 0.943194 
44050 0.943314 
44100 0.943435 
44150 0.943555 
44200 0.943676 
44250 0.943796 
44300 0.943917 
44350 0.944037 
44400 0.944158 
44450 0.944273 
44500 0.944384 
44550 0.944496 
44600 0.944608 
44650 0.944719 
44700 0.944831 
44750 0.944943 
44800 0.945055 
44850 0.945167 
44900 0.945279 
44950 0.94539 
45000 0.945502 
45050 0.945614 
45100 0.945726 
45150 0.945838 
45200 0.94595 
45250 0.946062 
45300 0.946171 
45350 0.946275 
45400 0.946379 
45450 0.946482 
45500 0.946586 
45550 0.94669 
45600 0.946794 
45650 0.946898 
45700 0.947002 
45750 0.947105 
45800 0.947209 
45850 0.947313 
45900 0.947417 
45950 0.947521 
46000 0.947625 
46050 0.947729 
46100 0.947833 
46150 0.947937 
46200 0.948036 
46250 0.948133 
46300 0.948229 
46350 0.948325 
46400 0.948422 
46450 0.948518 
46500 0.948615 
46550 0.948711 
46600 0.948808 
46650 0.948904 
46700 0.949001 
46750 0.949097 
46800 0.949194 
46850 0.94929 
46900 0.949387 
46950 0.949483 
47000 0.94958 
47050 0.949676 
47100 0.949769 
47150 0.949858 
47200 0.949948 
47250 0.950037 
47300 0.950127 
47350 0.950217 
47400 0.950306 
47450 0.950396 
47500 0.950485 
47550 0.950575 
47600 0.950665 
47650 0.950754 
47700 0.950844 
47750 0.950933 
47800 0.951023 
47850 0.951113 
47900 0.951202 
47950 0.951292 
48000 0.951381 
48050 0.951464 
48100 0.951547 
48150 0.95163 
48200 0.951713 
48250 0.951797 
48300 0.95188 
48350 0.951963 
48400 0.952046 
48450 0.952129 
48500 0.952213 
48550 0.952296 
48600 0.952379 
48650 0.952462 
48700 0.952546 
48750 0.952629 
48800 0.952712 
48850 0.952796 
48900 0.952879 
48950 0.95296 
49000 0.953037 
49050 0.953115 
49100 0.953192 
49150 0.953269 
49200 0.953346 
49250 0.953424 
49300 0.953501 
49350 0.953578 
49400 0.953656 
49450 0.953733 
49500 0.95381 
49550 0.953888 
49600 0.953965 
49650 0.954042 
49700 0.95412 
49750 0.954197 
49800 0.954274 
49850 0.954352 
49900 0.954428 
49950 0.954499 
50000 0.954571 
50050 0.954643 
50100 0.954715 
50150 0.954787 
50200 0.954859 
50250 0.95493 
50300 0.955002 
50350 0.955074 
50400 0.955146 
50450 0.955218 
50500 0.95529 
50550 0.955361 
50600 0.955433 
50650 0.955505 
50700 0.955577 
50750 0.955649 
50800 0.955721 
50850 0.955793 
50900 0.955861 
50950 0.955928 
51000 0.955994 
51050 0.956061 
51100 0.956128 
51150 0.956195 
51200 0.956261 
51250 0.956328 
51300 0.956395 
51350 0.956462 
51400 0.956528 
51450 0.956595 
51500 0.956662 
51550 0.956729 
51600 0.956795 
51650 0.956862 
51700 0.956929 
51750 0.956996 
51800 0.957063 
51850 0.957129 
51900 0.957192 
51950 0.957254 
52000 0.957316 
52050 0.957378 
52100 0.95744 
52150 0.957502 
52200 0.957564 
52250 0.957626 
52300 0.957689 
52350 0.957751 
52400 0.957813 
52450 0.957875 
52500 0.957937 
52550 0.957999 
52600 0.958061 
52650 0.958123 
52700 0.958185 
52750 0.958247 
52800 0.958309 
52850 0.958371 
52900 0.958431 
52950 0.958488 
53000 0.958546 
53050 0.958604 
53100 0.958661 
53150 0.958719 
53200 0.958777 
53250 0.958834 
53300 0.958892 
53350 0.95895 
53400 0.959007 
53450 0.959065 
53500 0.959123 
53550 0.95918 
53600 0.959238 
53650 0.959296 
53700 0.959353 
53750 0.959411 
53800 0.959469 
53850 0.959526 
53900 0.959584 
53950 0.959638 
54000 0.959692 
54050 0.959745 
54100 0.959799 
54150 0.959853 
54200 0.959906 
54250 0.95996 
54300 0.960013 
54350 0.960067 
54400 0.960121 
54450 0.960174 
54500 0.960228 
54550 0.960281 
54600 0.960335 
54650 0.960389 
54700 0.960442 
54750 0.960496 
54800 0.96055 
54850 0.960603 
54900 0.960657 
54950 0.960711 
55000 0.960761 
55050 0.960811 
55100 0.960861 
55150 0.96091 
55200 0.96096 
55250 0.96101 
55300 0.96106 
55350 0.96111 
55400 0.96116 
55450 0.96121 
55500 0.961259 
55550 0.961309 
55600 0.961359 
55650 0.961409 
55700 0.961459 
55750 0.961509 
55800 0.961559 
55850 0.961608 
55900 0.961658 
55950 0.961708 
56000 0.961758 
56050 0.961807 
56100 0.961853 
56150 0.961899 
56200 0.961946 
56250 0.961992 
56300 0.962038 
56350 0.962085 
56400 0.962131 
56450 0.962177 
56500 0.962224 
56550 0.96227 
56600 0.962317 
56650 0.962363 
56700 0.962409 
56750 0.962456 
56800 0.962502 
56850 0.962548 
56900 0.962595 
56950 0.962641 
57000 0.962687 
57050 0.962734 
57100 0.96278 
57150 0.962825 
57200 0.962868 
57250 0.962911 
57300 0.962955 
57350 0.962998 
57400 0.963041 
57450 0.963084 
57500 0.963127 
57550 0.96317 
57600 0.963213 
57650 0.963256 
57700 0.963299 
57750 0.963342 
57800 0.963386 
57850 0.963429 
57900 0.963472 
57950 0.963515 
58000 0.963558 
58050 0.963601 
58100 0.963644 
58150 0.963687 
58200 0.963731 
58250 0.963774 
58300 0.963814 
58350 0.963854 
58400 0.963894 
58450 0.963934 
58500 0.963974 
58550 0.964014 
58600 0.964054 
58650 0.964094 
58700 0.964135 
58750 0.964175 
58800 0.964215 
58850 0.964255 
58900 0.964295 
58950 0.964335 
59000 0.964375 
59050 0.964415 
59100 0.964456 
59150 0.964496 
59200 0.964536 
59250 0.964576 
59300 0.964616 
59350 0.964656 
59400 0.964696 
59450 0.964733 
59500 0.96477 
59550 0.964808 
59600 0.964845 
59650 0.964882 
59700 0.96492 
59750 0.964957 
59800 0.964994 
59850 0.965032 
59900 0.965069 
59950 0.965106 
60000 0.965144 
60050 0.965181 
60100 0.965218 
60150 0.965255 
60200 0.965293 
60250 0.96533 
60300 0.965367 
60350 0.965405 
60400 0.965442 
60450 0.965479 
60500 0.965517 
60550 0.965554 
60600 0.965589 
60650 0.965623 
60700 0.965658 
60750 0.965693 
60800 0.965728 
60850 0.965762 
60900 0.965797 
60950 0.965832 
61000 0.965867 
61050 0.965901 
61100 0.965936 
61150 0.965971 
61200 0.966006 
61250 0.96604 
61300 0.966075 
61350 0.96611 
61400 0.966145 
61450 0.966179 
61500 0.966214 
61550 0.966249 
61600 0.966284 
61650 0.966319 
61700 0.966353 
61750 0.966387 
61800 0.96642 
61850 0.966452 
61900 0.966484 
61950 0.966517 
62000 0.966549 
62050 0.966581 
62100 0.966614 
62150 0.966646 
62200 0.966678 
62250 0.966711 
62300 0.966743 
62350 0.966775 
62400 0.966808 
62450 0.96684 
62500 0.966872 
62550 0.966905 
62600 0.966937 
62650 0.96697 
62700 0.967002 
62750 0.967034 
62800 0.967067 
62850 0.967099 
62900 0.967131 
62950 0.967163 
63000 0.967193 
63050 0.967224 
63100 0.967254 
63150 0.967284 
63200 0.967314 
63250 0.967344 
63300 0.967374 
63350 0.967404 
63400 0.967434 
63450 0.967465 
63500 0.967495 
63550 0.967525 
63600 0.967555 
63650 0.967585 
63700 0.967615 
63750 0.967645 
63800 0.967676 
63850 0.967706 
63900 0.967736 
63950 0.967766 
64000 0.967796 
64050 0.967826 
64100 0.967857 
64150 0.967887 
64200 0.967916 
64250 0.967944 
64300 0.967972 
64350 0.968 
64400 0.968028 
64450 0.968056 
64500 0.968084 
64550 0.968112 
64600 0.96814 
64650 0.968168 
64700 0.968196 
64750 0.968224 
64800 0.968253 
64850 0.968281 
64900 0.968309 
64950 0.968337 
65000 0.968365 
65050 0.968393 
65100 0.968421 
65150 0.968449 
65200 0.968477 
65250 0.968505 
65300 0.968534 
65350 0.968562 
65400 0.96859 
65450 0.968617 
65500 0.968643 
65550 0.968669 
65600 0.968695 
65650 0.968722 
65700 0.968748 
65750 0.968774 
65800 0.9688 
65850 0.968826 
65900 0.968852 
65950 0.968879 
66000 0.968905 
66050 0.968931 
66100 0.968957 
66150 0.968983 
66200 0.96901 
66250 0.969036 
66300 0.969062 
66350 0.969088 
66400 0.969114 
66450 0.969141 
66500 0.969167 
66550 0.969193 
66600 0.969219 
66650 0.969245 
66700 0.969272 
66750 0.969296 
66800 0.96932 
66850 0.969345 
66900 0.969369 
66950 0.969394 
67000 0.969418 
67050 0.969442 
67100 0.969467 
67150 0.969491 
67200 0.969516 
67250 0.96954 
67300 0.969565 
67350 0.969589 
67400 0.969613 
67450 0.969638 
67500 0.969662 
67550 0.969687 
67600 0.969711 
67650 0.969736 
67700 0.96976 
67750 0.969784 
67800 0.969809 
67850 0.969833 
67900 0.969858 
67950 0.969882 
68000 0.969907 
68050 0.96993 
68100 0.969952 
68150 0.969975 
68200 0.969998 
68250 0.970021 
68300 0.970043 
68350 0.970066 
68400 0.970089 
68450 0.970112 
68500 0.970135 
68550 0.970157 
68600 0.97018 
68650 0.970203 
68700 0.970226 
68750 0.970249 
68800 0.970271 
68850 0.970294 
68900 0.970317 
68950 0.97034 
69000 0.970363 
69050 0.970385 
69100 0.970408 
69150 0.970431 
69200 0.970454 
69250 0.970477 
69300 0.970499 
69350 0.970522 
69400 0.970543 
69450 0.970564 
69500 0.970586 
69550 0.970607 
69600 0.970628 
69650 0.970649 
69700 0.970671 
69750 0.970692 
69800 0.970713 
69850 0.970734 
69900 0.970756 
69950 0.970777 
70000 0.970798 
70050 0.97082 
70100 0.970841 
70150 0.970862 
70200 0.970883 
70250 0.970905 
70300 0.970926 
70350 0.970947 
70400 0.970969 
70450 0.97099 
70500 0.971011 
70550 0.971032 
70600 0.971054 
70650 0.971075 
70700 0.971096 
70750 0.971116 
70800 0.971136 
70850 0.971156 
70900 0.971175 
70950 0.971195 
71000 0.971215 
71050 0.971235 
71100 0.971255 
71150 0.971275 
71200 0.971295 
71250 0.971315 
71300 0.971334 
71350 0.971354 
71400 0.971374 
71450 0.971394 
71500 0.971414 
71550 0.971434 
71600 0.971454 
71650 0.971474 
71700 0.971493 
71750 0.971513 
71800 0.971533 
71850 0.971553 
71900 0.971573 
71950 0.971593 
72000 0.971613 
72050 0.971633 
72100 0.971652 
72150 0.97167 
72200 0.971689 
72250 0.971707 
72300 0.971726 
72350 0.971745 
72400 0.971763 
72450 0.971782 
72500 0.9718 
72550 0.971819 
72600 0.971837 
72650 0.971856 
72700 0.971875 
72750 0.971893 
72800 0.971912 
72850 0.97193 
72900 0.971949 
72950 0.971967 
73000 0.971986 
73050 0.972005 
73100 0.972023 
73150 0.972042 
73200 0.97206 
73250 0.972079 
73300 0.972097 
73350 0.972116 
73400 0.972135 
73450 0.972153 
73500 0.972171 
73550 0.972189 
73600 0.972206 
73650 0.972223 
73700 0.972241 
73750 0.972258 
73800 0.972275 
73850 0.972293 
73900 0.97231 
73950 0.972328 
74000 0.972345 
74050 0.972362 
74100 0.97238 
74150 0.972397 
74200 0.972414 
74250 0.972432 
74300 0.972449 
74350 0.972466 
74400 0.972484 
74450 0.972501 
74500 0.972519 
74550 0.972536 
74600 0.972553 
74650 0.972571 
74700 0.972588 
74750 0.972605 
74800 0.972623 
74850 0.97264 
74900 0.972658 
74950 0.972674 
75000 0.97269 
75050 0.972707 
75100 0.972723 
75150 0.972739 
75200 0.972755 
75250 0.972772 
75300 0.972788 
75350 0.972804 
75400 0.97282 
75450 0.972837 
75500 0.972853 
75550 0.972869 
75600 0.972885 
75650 0.972902 
75700 0.972918 
75750 0.972934 
75800 0.97295 
75850 0.972966 
75900 0.972983 
75950 0.972999 
76000 0.973015 
76050 0.973031 
76100 0.973048 
76150 0.973064 
76200 0.97308 
76250 0.973096 
76300 0.973113 
76350 0.973129 
76400 0.973145 
76450 0.97316 
76500 0.973175 
76550 0.97319 
76600 0.973206 
76650 0.973221 
76700 0.973236 
76750 0.973251 
76800 0.973266 
76850 0.973282 
76900 0.973297 
76950 0.973312 
77000 0.973327 
77050 0.973343 
77100 0.973358 
77150 0.973373 
77200 0.973388 
77250 0.973403 
77300 0.973419 
77350 0.973434 
77400 0.973449 
77450 0.973464 
77500 0.973479 
77550 0.973495 
77600 0.97351 
77650 0.973525 
77700 0.97354 
77750 0.973556 
77800 0.973571 
77850 0.973586 
77900 0.973601 
77950 0.973615 
78000 0.973629 
78050 0.973643 
78100 0.973658 
78150 0.973672 
78200 0.973686 
78250 0.9737 
78300 0.973715 
78350 0.973729 
78400 0.973743 
78450 0.973757 
78500 0.973772 
78550 0.973786 
78600 0.9738 
78650 0.973814 
78700 0.973829 
78750 0.973843 
78800 0.973857 
78850 0.973871 
78900 0.973886 
78950 0.9739 
79000 0.973914 
79050 0.973928 
79100 0.973943 
79150 0.973957 
79200 0.973971 
79250 0.973985 
79300 0.974 
79350 0.974014 
79400 0.974028 
79450 0.974041 
79500 0.974055 
79550 0.974068 
79600 0.974081 
79650 0.974095 
79700 0.974108 
79750 0.974122 
79800 0.974135 
79850 0.974148 
79900 0.974162 
79950 0.974175 
80000 0.974188 
80050 0.974202 
80100 0.974215 
80150 0.974228 
80200 0.974242 
80250 0.974255 
80300 0.974268 
80350 0.974282 
80400 0.974295 
80450 0.974308 
80500 0.974322 
80550 0.974335 
80600 0.974348 
80650 0.974362 
80700 0.974375 
80750 0.974389 
80800 0.974402 
80850 0.974415 
80900 0.974429 
80950 0.974442 
81000 0.974455 
81050 0.974467 
81100 0.97448 
81150 0.974492 
81200 0.974505 
81250 0.974517 
81300 0.97453 
81350 0.974542 
81400 0.974555 
81450 0.974567 
81500 0.97458 
81550 0.974592 
81600 0.974605 
81650 0.974617 
81700 0.97463 
81750 0.974642 
81800 0.974655 
81850 0.974667 
81900 0.97468 
81950 0.974692 
82000 0.974705 
82050 0.974717 
82100 0.97473 
82150 0.974742 
82200 0.974755 
82250 0.974768 
82300 0.97478 
82350 0.974793 
82400 0.974805 
82450 0.974818 
82500 0.97483 
82550 0.974842 
82600 0.974854 
82650 0.974866 
82700 0.974878 
82750 0.974889 
82800 0.974901 
82850 0.974913 
82900 0.974925 
82950 0.974936 
83000 0.974948 
83050 0.97496 
83100 0.974972 
83150 0.974983 
83200 0.974995 
83250 0.975007 
83300 0.975019 
83350 0.97503 
83400 0.975042 
83450 0.975054 
83500 0.975066 
83550 0.975078 
83600 0.975089 
83650 0.975101 
83700 0.975113 
83750 0.975125 
83800 0.975136 
83850 0.975148 
83900 0.97516 
83950 0.975172 
84000 0.975183 
84050 0.975195 
84100 0.975207 
84150 0.975219 
84200 0.97523 
84250 0.975241 
84300 0.975252 
84350 0.975263 
84400 0.975274 
84450 0.975285 
84500 0.975296 
84550 0.975307 
84600 0.975318 
84650 0.975329 
84700 0.97534 
84750 0.975351 
84800 0.975362 
84850 0.975373 
84900 0.975384 
84950 0.975395 
85000 0.975406 
85050 0.975417 
85100 0.975428 
85150 0.975439 
85200 0.97545 
85250 0.975461 
85300 0.975472 
85350 0.975483 
85400 0.975495 
85450 0.975506 
85500 0.975517 
85550 0.975528 
85600 0.975539 
85650 0.97555 
85700 0.975561 
85750 0.975572 
85800 0.975583 
85850 0.975593 
85900 0.975604 
85950 0.975614 
86000 0.975624 
86050 0.975635 
86100 0.975645 
86150 0.975655 
86200 0.975666 
86250 0.975676 
86300 0.975687 
86350 0.975697 
86400 0.975707 
86450 0.975718 
86500 0.975728 
86550 0.975738 
86600 0.975749 
86650 0.975759 
86700 0.97577 
86750 0.97578 
86800 0.97579 
86850 0.975801 
86900 0.975811 
86950 0.975821 
87000 0.975832 
87050 0.975842 
87100 0.975853 
87150 0.975863 
87200 0.975873 
87250 0.975884 
87300 0.975894 
87350 0.975904 
87400 0.975915 
87450 0.975925 
87500 0.975935 
87550 0.975945 
87600 0.975955 
87650 0.975964 
87700 0.975974 
87750 0.975984 
87800 0.975994 
87850 0.976004 
87900 0.976013 
87950 0.976023 
88000 0.976033 
88050 0.976043 
88100 0.976052 
88150 0.976062 
88200 0.976072 
88250 0.976082 
88300 0.976091 
88350 0.976101 
88400 0.976111 
88450 0.976121 
88500 0.97613 
88550 0.97614 
88600 0.97615 
88650 0.97616 
88700 0.976169 
88750 0.976179 
88800 0.976189 
88850 0.976199 
88900 0.976208 
88950 0.976218 
89000 0.976228 
89050 0.976238 
89100 0.976247 
89150 0.976257 
89200 0.976267 
89250 0.976276 
89300 0.976285 
89350 0.976294 
89400 0.976304 
89450 0.976313 
89500 0.976322 
89550 0.976331 
89600 0.97634 
89650 0.976349 
89700 0.976359 
89750 0.976368 
89800 0.976377 
89850 0.976386 
89900 0.976395 
89950 0.976405 
90000 0.976414 
90050 0.976423 
90100 0.976432 
90150 0.976441 
90200 0.976451 
90250 0.97646 
90300 0.976469 
90350 0.976478 
90400 0.976487 
90450 0.976496 
90500 0.976506 
90550 0.976515 
90600 0.976524 
90650 0.976533 
90700 0.976542 
90750 0.976552 
90800 0.976561 
90850 0.97657 
90900 0.976579 
90950 0.976588 
91000 0.976597 
91050 0.976605 
91100 0.976614 
91150 0.976623 
91200 0.976631 
91250 0.97664 
91300 0.976649 
91350 0.976657 
91400 0.976666 
91450 0.976675 
91500 0.976683 
91550 0.976692 
91600 0.976701 
91650 0.976709 
91700 0.976718 
91750 0.976727 
91800 0.976735 
91850 0.976744 
91900 0.976752 
91950 0.976761 
92000 0.97677 
92050 0.976778 
92100 0.976787 
92150 0.976796 
92200 0.976804 
92250 0.976813 
92300 0.976822 
92350 0.97683 
92400 0.976839 
92450 0.976848 
92500 0.976856 
92550 0.976865 
92600 0.976874 
92650 0.976882 
92700 0.976891 
92750 0.976899 
92800 0.976907 
92850 0.976915 
92900 0.976924 
92950 0.976932 
93000 0.97694 
93050 0.976948 
93100 0.976956 
93150 0.976964 
93200 0.976973 
93250 0.976981 
93300 0.976989 
93350 0.976997 
93400 0.977005 
93450 0.977013 
93500 0.977022 
93550 0.97703 
93600 0.977038 
93650 0.977046 
93700 0.977054 
93750 0.977062 
93800 0.97707 
93850 0.977079 
93900 0.977087 
93950 0.977095 
94000 0.977103 
94050 0.977111 
94100 0.977119 
94150 0.977128 
94200 0.977136 
94250 0.977144 
94300 0.977152 
94350 0.97716 
94400 0.977168 
94450 0.977176 
94500 0.977185 
94550 0.977193 
94600 0.9772 
94650 0.977208 
94700 0.977216 
94750 0.977223 
94800 0.977231 
94850 0.977239 
94900 0.977246 
94950 0.977254 
95000 0.977262 
95050 0.977269 
95100 0.977277 
95150 0.977285 
95200 0.977293 
95250 0.9773 
95300 0.977308 
95350 0.977316 
95400 0.977323 
95450 0.977331 
95500 0.977339 
95550 0.977346 
95600 0.977354 
95650 0.977362 
95700 0.97737 
95750 0.977377 
95800 0.977385 
95850 0.977393 
95900 0.9774 
95950 0.977408 
96000 0.977416 
96050 0.977423 
96100 0.977431 
96150 0.977439 
96200 0.977447 
96250 0.977454 
96300 0.977462 
96350 0.97747 
96400 0.977477 
96450 0.977484 
96500 0.977492 
96550 0.977499 
96600 0.977506 
96650 0.977513 
96700 0.977521 
96750 0.977528 
96800 0.977535 
96850 0.977542 
96900 0.97755 
96950 0.977557 
97000 0.977564 
97050 0.977571 
97100 0.977579 
97150 0.977586 
97200 0.977593 
97250 0.977601 
97300 0.977608 
97350 0.977615 
97400 0.977622 
97450 0.97763 
97500 0.977637 
97550 0.977644 
97600 0.977651 
97650 0.977659 
97700 0.977666 
97750 0.977673 
97800 0.977681 
97850 0.977688 
97900 0.977695 
97950 0.977702 
98000 0.97771 
98050 0.977717 
98100 0.977724 
98150 0.977731 
98200 0.977739 
98250 0.977746 
98300 0.977753 
98350 0.97776 
98400 0.977767 
98450 0.977773 
98500 0.97778 
98550 0.977787 
98600 0.977794 
98650 0.977801 
98700 0.977808 
98750 0.977815 
98800 0.977822 
98850 0.977828 
98900 0.977835 
98950 0.977842 
99000 0.977849 
99050 0.977856 
99100 0.977863 
99150 0.97787 
99200 0.977876 
99250 0.977883 
99300 0.97789 
99350 0.977897 
99400 0.977904 
99450 0.977911 
99500 0.977918 
99550 0.977925 
99600 0.977931 
99650 0.977938 
99700 0.977945 
99750 0.977952 
99800 0.977959 
99850 0.977966 
99900 0.977973 
99950 0.977979 
100000 0.977986 
