# Diamond Light Source
# Instrument: B18-CORE XAS Date: Mon, 27 Jul 2015 15:10:06 BST
# Ring energy:   3.0
# Ring current - start: 151.3
# Primary slits:  vertical gap=  2.4; horizontal gap= 52.0; vertical offset=  0.6; horizontal offset= -1.0
# Secondary slits:  vertical gap=  3.5; horizontal gap= 21.0; vertical offset=  5.3; horizontal offset= -14.5
# OH Mirror Coating: Pt
# White beam filter: 500um Al
# Crystal cut: Si(311)
# PostDCM slits:  vertical gap=  1.6; horizontal gap= 28.0; vertical offset= -7.5; horizontal offset= -14.5
# Experimental slits:  vertical gap= 16.8; horizontal gap= 42.0; vertical offset= -5.6; horizontal offset= -19.0
# HR Mirror : out; Y: 40.0; Pitch:  8.3; Coating: Pt
# Mirror 2: Pitch:  2.2; Height: -6.6; Yaw: -1.5; Bend:  0.8;
# I0 Stanford sensitivity: 100 nA/V Offsets: 1 pA
# It Stanford sensitivity: 200 nA/V Offsets: 1 pA
# Iref Stanford sensitivity: 20 nA/V Offsets: 1 pA
#
# Ascii output file name: 'Experiment_1//ascii/206104_Mo_foil_2.dat'
# Nexus output file: '/dls/b18/data/2015/cm12172-3/Experiment_1//nexus/206104_Mo_foil_2.nxs'
# XML folder and files:
# /dls/b18/data/2015/cm12172-3/xml/Experiment_1/
# QEXAFS_Parameters1
# Sample_Parameters1
# Detector_Parameters1
# Output_Parameters1
# The contents of these files are also stored in the nexus file.
#
# Sample name: Mo_foil
# Sample description: default sample description
# Additional comments: default additional comments
# command: qexafs_energy 19800.0 22600.0 2804 275.93 qexafs_counterTimer01
#
#
#
# Energy  lnI0It
19797.14	-0.0375186
19798.01	-0.042698
19798.88	-0.0428433
19799.75	-0.0432645
19800.63	-0.0436611
19801.5	-0.0435756
19802.37	-0.0441798
19803.25	-0.0442188
19804.12	-0.0449451
19804.99	-0.0448212
19805.87	-0.0451358
19806.74	-0.0454567
19807.61	-0.0458977
19808.49	-0.0462166
19809.36	-0.0460332
19810.23	-0.0466638
19811.11	-0.0463393
19811.98	-0.0467543
19812.86	-0.0472596
19813.73	-0.0471696
19814.61	-0.0477957
19815.48	-0.0480746
19816.35	-0.0475531
19817.23	-0.0481648
19818.1	-0.0485983
19818.98	-0.0486047
19819.85	-0.0491234
19820.73	-0.0492334
19821.6	-0.0496278
19822.48	-0.049287
19823.35	-0.0499681
19824.23	-0.0500295
19825.1	-0.0503362
19825.98	-0.0510053
19826.85	-0.0506519
19827.73	-0.0514618
19828.6	-0.0516008
19829.48	-0.0516859
19830.36	-0.0519434
19831.23	-0.0517603
19832.11	-0.0521573
19832.98	-0.0526186
19833.86	-0.053238
19834.74	-0.0530663
19835.61	-0.0530096
19836.49	-0.0531788
19837.36	-0.0541023
19838.24	-0.0539042
19839.12	-0.0544168
19839.99	-0.0544962
19840.87	-0.0546475
19841.75	-0.0549094
19842.62	-0.0549744
19843.5	-0.0554377
19844.38	-0.0557258
19845.25	-0.0557482
19846.13	-0.056333
19847.01	-0.0564965
19847.89	-0.0566267
19848.76	-0.0563591
19849.64	-0.0565224
19850.52	-0.0572129
19851.4	-0.0576675
19852.27	-0.0578118
19853.15	-0.0577487
19854.03	-0.0582625
19854.91	-0.0579317
19855.78	-0.0588568
19856.66	-0.058591
19857.54	-0.0593998
19858.42	-0.0592732
19859.3	-0.0594246
19860.18	-0.0597117
19861.05	-0.0597838
19861.93	-0.060699
19862.81	-0.0602609
19863.69	-0.0603837
19864.57	-0.0609309
19865.45	-0.0610898
19866.33	-0.0613113
19867.21	-0.0615419
19868.08	-0.0615049
19868.96	-0.0616388
19869.84	-0.0622145
19870.72	-0.062323
19871.6	-0.0625598
19872.48	-0.0626455
19873.36	-0.0628939
19874.24	-0.0631372
19875.12	-0.0631779
19876	-0.0635013
19876.88	-0.0639542
19877.76	-0.0638017
19878.64	-0.0642473
19879.52	-0.064541
19880.4	-0.0645757
19881.28	-0.0649168
19882.16	-0.0650278
19883.04	-0.0647999
19883.92	-0.0654083
19884.8	-0.0656211
19885.68	-0.0658304
19886.56	-0.0664533
19887.44	-0.0662197
19888.33	-0.0662677
19889.21	-0.0667974
19890.09	-0.0667878
19890.97	-0.0666413
19891.85	-0.0672675
19892.73	-0.0672139
19893.61	-0.0676841
19894.49	-0.0677139
19895.38	-0.0679791
19896.26	-0.0679531
19897.14	-0.0677998
19898.02	-0.0683455
19898.9	-0.0683395
19899.78	-0.068992
19900.67	-0.069266
19901.55	-0.0690365
19902.43	-0.0695047
19903.31	-0.069452
19904.19	-0.0696891
19905.08	-0.0701205
19905.96	-0.0703974
19906.84	-0.0697977
19907.72	-0.0706416
19908.61	-0.0704806
19909.49	-0.0706162
19910.37	-0.0708005
19911.26	-0.0705778
19912.14	-0.071372
19913.02	-0.0711698
19913.91	-0.071358
19914.79	-0.0715568
19915.67	-0.071612
19916.56	-0.0714707
19917.44	-0.0719021
19918.32	-0.0723775
19919.21	-0.0724195
19920.09	-0.0725517
19920.97	-0.0727848
19921.86	-0.0728619
19922.74	-0.0729819
19923.63	-0.0730952
19924.51	-0.0731519
19925.39	-0.0733194
19926.28	-0.0731741
19927.16	-0.0733434
19928.05	-0.0735127
19928.93	-0.0736414
19929.82	-0.0738662
19930.7	-0.073597
19931.59	-0.0736987
19932.47	-0.0739002
19933.36	-0.0735167
19934.24	-0.0741089
19935.13	-0.0738448
19936.01	-0.0741346
19936.9	-0.0739188
19937.78	-0.0741919
19938.67	-0.0740968
19939.55	-0.0743523
19940.44	-0.0743229
19941.32	-0.074481
19942.21	-0.0741977
19943.1	-0.0743284
19943.98	-0.0743919
19944.87	-0.0739309
19945.75	-0.0742308
19946.64	-0.0742871
19947.53	-0.0745102
19948.41	-0.0740605
19949.3	-0.0737043
19950.19	-0.0740418
19951.07	-0.0742929
19951.96	-0.0735219
19952.85	-0.073816
19953.73	-0.0732463
19954.62	-0.0732796
19955.51	-0.0730816
19956.39	-0.0729781
19957.28	-0.0726787
19958.17	-0.0724212
19959.06	-0.0723871
19959.94	-0.0724418
19960.83	-0.0715252
19961.72	-0.0713944
19962.61	-0.0708412
19963.49	-0.0710756
19964.38	-0.0700892
19965.27	-0.0698096
19966.16	-0.0689572
19967.04	-0.0686727
19967.93	-0.0682881
19968.82	-0.0678858
19969.71	-0.0672419
19970.6	-0.0661195
19971.49	-0.065548
19972.37	-0.0649727
19973.26	-0.063772
19974.15	-0.0626115
19975.04	-0.0615721
19975.93	-0.0604583
19976.82	-0.0589368
19977.71	-0.0577505
19978.6	-0.0560994
19979.49	-0.0547001
19980.37	-0.0525149
19981.26	-0.0506624
19982.15	-0.0484086
19983.04	-0.0465029
19983.93	-0.0436168
19984.82	-0.0408104
19985.71	-0.037823
19986.6	-0.0342739
19987.49	-0.0297744
19988.38	-0.0255506
19989.27	-0.0201917
19990.16	-0.0143794
19991.05	-0.00700829
19991.94	4.78138E-4
19992.83	0.0108135
19993.72	0.0227067
19994.61	0.0380379
19995.5	0.0573259
19996.39	0.0846374
19997.29	0.120971
19998.18	0.173131
19999.07	0.245534
19999.96	0.333781
20000.85	0.42051
20001.74	0.494078
20002.63	0.561321
20003.52	0.623462
20004.41	0.687896
20005.31	0.755661
20006.2	0.8241
20007.09	0.889759
20007.98	0.95455
20008.87	1.02215
20009.76	1.1054
20010.66	1.20435
20011.55	1.31891
20012.44	1.43057
20013.33	1.53011
20014.23	1.60346
20015.12	1.65031
20016.01	1.67725
20016.9	1.67983
20017.8	1.65881
20018.69	1.61839
20019.58	1.57202
20020.47	1.53423
20021.37	1.51442
20022.26	1.51145
20023.15	1.52305
20024.05	1.54236
20024.94	1.56284
20025.83	1.58268
20026.73	1.59565
20027.62	1.60289
20028.51	1.6047
20029.41	1.60216
20030.3	1.59901
20031.19	1.59774
20032.09	1.59833
20032.98	1.60445
20033.88	1.61501
20034.77	1.62887
20035.66	1.64519
20036.56	1.65963
20037.45	1.67481
20038.35	1.68975
20039.24	1.70513
20040.14	1.72223
20041.03	1.74055
20041.93	1.758
20042.82	1.77484
20043.72	1.78499
20044.61	1.78675
20045.51	1.77834
20046.4	1.75943
20047.3	1.73396
20048.19	1.70457
20049.09	1.67501
20049.98	1.64691
20050.88	1.62319
20051.78	1.60293
20052.67	1.58719
20053.57	1.57581
20054.46	1.56887
20055.36	1.56489
20056.26	1.5644
20057.15	1.56731
20058.05	1.57237
20058.94	1.57906
20059.84	1.58722
20060.74	1.59651
20061.63	1.60496
20062.53	1.61101
20063.43	1.61522
20064.32	1.61685
20065.22	1.61615
20066.12	1.61426
20067.01	1.60998
20067.91	1.60718
20068.81	1.60073
20069.71	1.59561
20070.6	1.59087
20071.5	1.584
20072.4	1.57856
20073.3	1.57382
20074.19	1.56907
20075.09	1.56685
20075.99	1.56484
20076.89	1.56663
20077.79	1.5701
20078.68	1.57642
20079.58	1.58435
20080.48	1.5962
20081.38	1.60891
20082.28	1.62202
20083.18	1.63647
20084.08	1.64838
20084.97	1.65837
20085.87	1.66681
20086.77	1.67365
20087.67	1.67476
20088.57	1.67394
20089.47	1.66925
20090.37	1.66057
20091.27	1.64871
20092.17	1.63428
20093.07	1.61994
20093.97	1.60382
20094.87	1.58882
20095.77	1.57497
20096.66	1.56493
20097.56	1.55573
20098.46	1.55004
20099.36	1.547
20100.26	1.54658
20101.17	1.54618
20102.07	1.54916
20102.97	1.55196
20103.87	1.55464
20104.77	1.55812
20105.67	1.55906
20106.57	1.5622
20107.47	1.56325
20108.37	1.5647
20109.27	1.56537
20110.17	1.56509
20111.07	1.56535
20111.97	1.56689
20112.88	1.56582
20113.78	1.56764
20114.68	1.56797
20115.58	1.56826
20116.48	1.57003
20117.38	1.5715
20118.28	1.57456
20119.19	1.57802
20120.09	1.58268
20120.99	1.58732
20121.89	1.59454
20122.79	1.59868
20123.7	1.60371
20124.6	1.61062
20125.5	1.61584
20126.4	1.61965
20127.31	1.62323
20128.21	1.62592
20129.11	1.62572
20130.02	1.6242
20130.92	1.6219
20131.82	1.61673
20132.72	1.61222
20133.63	1.60596
20134.53	1.59836
20135.43	1.5917
20136.34	1.58498
20137.24	1.57717
20138.14	1.5703
20139.05	1.56236
20139.95	1.55299
20140.86	1.54498
20141.76	1.53506
20142.66	1.52669
20143.57	1.51902
20144.47	1.5113
20145.38	1.50468
20146.28	1.50017
20147.19	1.49705
20148.09	1.4931
20148.99	1.49177
20149.9	1.49049
20150.8	1.4896
20151.71	1.4885
20152.61	1.48691
20153.52	1.48658
20154.42	1.48535
20155.33	1.48351
20156.23	1.48276
20157.14	1.4829
20158.04	1.48312
20158.95	1.48454
20159.86	1.48642
20160.76	1.48913
20161.67	1.49229
20162.57	1.49644
20163.48	1.50117
20164.38	1.504
20165.29	1.50775
20166.2	1.50995
20167.1	1.51251
20168.01	1.51487
20168.92	1.51678
20169.82	1.51871
20170.73	1.52038
20171.64	1.52158
20172.54	1.52196
20173.45	1.52065
20174.36	1.52177
20175.26	1.51981
20176.17	1.51896
20177.08	1.51683
20177.98	1.51504
20178.89	1.51557
20179.8	1.51522
20180.71	1.51673
20181.61	1.51935
20182.52	1.52313
20183.43	1.52853
20184.34	1.53654
20185.25	1.54578
20186.15	1.5537
20187.06	1.56347
20187.97	1.57233
20188.88	1.5819
20189.79	1.58949
20190.69	1.59604
20191.6	1.6005
20192.51	1.60496
20193.42	1.60682
20194.33	1.60908
20195.24	1.60825
20196.15	1.60614
20197.06	1.60236
20197.96	1.59853
20198.87	1.59216
20199.78	1.5833
20200.69	1.57475
20201.6	1.56358
20202.51	1.55355
20203.42	1.54029
20204.33	1.52702
20205.24	1.51181
20206.15	1.49976
20207.06	1.48488
20207.97	1.47182
20208.88	1.458
20209.79	1.44493
20210.7	1.43176
20211.61	1.42109
20212.52	1.41061
20213.43	1.40136
20214.34	1.39467
20215.25	1.38943
20216.16	1.38632
20217.07	1.38503
20217.98	1.38414
20218.9	1.38637
20219.81	1.39078
20220.72	1.39516
20221.63	1.3996
20222.54	1.40503
20223.45	1.40998
20224.36	1.41382
20225.28	1.41726
20226.19	1.42016
20227.1	1.42211
20228.01	1.42333
20228.92	1.4238
20229.83	1.42475
20230.75	1.42507
20231.66	1.42516
20232.57	1.4248
20233.48	1.42577
20234.4	1.42699
20235.31	1.4286
20236.22	1.43104
20237.13	1.43383
20238.05	1.43692
20238.96	1.44122
20239.87	1.44388
20240.78	1.44902
20241.7	1.45283
20242.61	1.45807
20243.52	1.46311
20244.44	1.46789
20245.35	1.47334
20246.26	1.47821
20247.18	1.4844
20248.09	1.48832
20249.01	1.49395
20249.92	1.49791
20250.83	1.50193
20251.75	1.50406
20252.66	1.50797
20253.58	1.51051
20254.49	1.5121
20255.4	1.51252
20256.32	1.5138
20257.23	1.51397
20258.15	1.51381
20259.06	1.51307
20259.98	1.51305
20260.89	1.51215
20261.81	1.51167
20262.72	1.51109
20263.64	1.5114
20264.55	1.51145
20265.47	1.51194
20266.38	1.51212
20267.3	1.51144
20268.21	1.51165
20269.13	1.51027
20270.04	1.50921
20270.96	1.50741
20271.88	1.50511
20272.79	1.50265
20273.71	1.50078
20274.62	1.49675
20275.54	1.49343
20276.46	1.48945
20277.37	1.4865
20278.29	1.48217
20279.21	1.47817
20280.12	1.47434
20281.04	1.46968
20281.96	1.46385
20282.87	1.45768
20283.79	1.45131
20284.71	1.44375
20285.62	1.43785
20286.54	1.43118
20287.46	1.42501
20288.38	1.41885
20289.29	1.41315
20290.21	1.40922
20291.13	1.40451
20292.05	1.40054
20292.96	1.39623
20293.88	1.39281
20294.8	1.38885
20295.72	1.38662
20296.64	1.3835
20297.55	1.38108
20298.47	1.37758
20299.39	1.37553
20300.31	1.37219
20301.23	1.36824
20302.15	1.36511
20303.07	1.36182
20303.98	1.36074
20304.9	1.35904
20305.82	1.35917
20306.74	1.36089
20307.66	1.36246
20308.58	1.36473
20309.5	1.36804
20310.42	1.37173
20311.34	1.37545
20312.26	1.3805
20313.18	1.38415
20314.1	1.38724
20315.02	1.39194
20315.94	1.39574
20316.86	1.3987
20317.78	1.40223
20318.7	1.40585
20319.62	1.40919
20320.54	1.41271
20321.46	1.41635
20322.38	1.41936
20323.3	1.42141
20324.22	1.4261
20325.14	1.42856
20326.06	1.43091
20326.98	1.43392
20327.9	1.43627
20328.82	1.43836
20329.74	1.44119
20330.67	1.44267
20331.59	1.44511
20332.51	1.44618
20333.43	1.44736
20334.35	1.4488
20335.27	1.44937
20336.2	1.45062
20337.12	1.45158
20338.04	1.45154
20338.96	1.4518
20339.88	1.4526
20340.81	1.45257
20341.73	1.45178
20342.65	1.4516
20343.57	1.45096
20344.5	1.45032
20345.42	1.44911
20346.34	1.44756
20347.26	1.44562
20348.19	1.44402
20349.11	1.44193
20350.03	1.4393
20350.96	1.43701
20351.88	1.43467
20352.8	1.43206
20353.73	1.43007
20354.65	1.42767
20355.57	1.42453
20356.5	1.42375
20357.42	1.42273
20358.34	1.42081
20359.27	1.42014
20360.19	1.42008
20361.12	1.41928
20362.04	1.41876
20362.96	1.4166
20363.89	1.41666
20364.81	1.41639
20365.74	1.4144
20366.66	1.41311
20367.59	1.41115
20368.51	1.4089
20369.44	1.40671
20370.36	1.40392
20371.29	1.39979
20372.21	1.39575
20373.14	1.39219
20374.06	1.38815
20374.99	1.38411
20375.91	1.38071
20376.84	1.3769
20377.76	1.37332
20378.69	1.3702
20379.61	1.369
20380.54	1.36755
20381.47	1.36613
20382.39	1.36478
20383.32	1.36504
20384.24	1.3651
20385.17	1.36536
20386.1	1.36556
20387.02	1.36628
20387.95	1.36701
20388.88	1.36649
20389.8	1.36568
20390.73	1.36531
20391.66	1.36542
20392.58	1.36511
20393.51	1.36513
20394.44	1.364
20395.37	1.36291
20396.29	1.36234
20397.22	1.3618
20398.15	1.35984
20399.08	1.35852
20400	1.35846
20400.93	1.35708
20401.86	1.35589
20402.79	1.35421
20403.72	1.35405
20404.64	1.35354
20405.57	1.35432
20406.5	1.35419
20407.43	1.35556
20408.36	1.35621
20409.28	1.358
20410.21	1.35944
20411.14	1.36095
20412.07	1.36319
20413	1.36441
20413.93	1.36608
20414.86	1.36695
20415.79	1.36779
20416.72	1.36853
20417.65	1.3677
20418.57	1.36891
20419.5	1.36905
20420.43	1.36952
20421.36	1.36791
20422.29	1.36784
20423.22	1.36763
20424.15	1.36668
20425.08	1.36568
20426.01	1.36518
20426.94	1.36388
20427.87	1.36348
20428.8	1.36287
20429.73	1.36168
20430.66	1.36014
20431.6	1.35958
20432.53	1.3592
20433.46	1.35778
20434.39	1.35765
20435.32	1.35724
20436.25	1.35782
20437.18	1.35661
20438.11	1.35681
20439.04	1.3571
20439.97	1.35774
20440.91	1.35839
20441.84	1.35914
20442.77	1.35999
20443.7	1.3617
20444.63	1.3625
20445.56	1.36453
20446.5	1.36645
20447.43	1.36723
20448.36	1.36887
20449.29	1.36997
20450.23	1.37182
20451.16	1.37225
20452.09	1.37402
20453.02	1.37388
20453.96	1.37407
20454.89	1.37388
20455.82	1.3732
20456.75	1.37126
20457.69	1.36938
20458.62	1.36938
20459.55	1.36692
20460.49	1.36606
20461.42	1.36316
20462.35	1.36228
20463.29	1.36129
20464.22	1.36033
20465.15	1.35921
20466.09	1.35787
20467.02	1.35743
20467.96	1.35647
20468.89	1.35594
20469.82	1.35521
20470.76	1.35401
20471.69	1.3531
20472.63	1.35162
20473.56	1.34995
20474.5	1.34833
20475.43	1.34561
20476.37	1.34394
20477.3	1.34143
20478.24	1.33959
20479.17	1.3367
20480.11	1.33451
20481.04	1.33203
20481.98	1.33015
20482.91	1.32704
20483.85	1.32635
20484.78	1.32448
20485.72	1.32368
20486.65	1.32209
20487.59	1.32146
20488.53	1.32072
20489.46	1.31994
20490.4	1.3193
20491.33	1.31975
20492.27	1.31926
20493.21	1.31923
20494.14	1.31928
20495.08	1.3192
20496.02	1.31881
20496.95	1.31925
20497.89	1.31933
20498.83	1.31936
20499.76	1.32004
20500.7	1.31996
20501.64	1.31954
20502.57	1.31957
20503.51	1.32012
20504.45	1.31986
20505.39	1.31999
20506.32	1.31975
20507.26	1.31906
20508.2	1.31877
20509.14	1.31831
20510.07	1.3184
20511.01	1.31802
20511.95	1.31777
20512.89	1.31702
20513.83	1.31575
20514.77	1.31575
20515.7	1.31459
20516.64	1.31374
20517.58	1.3136
20518.52	1.31186
20519.46	1.31126
20520.4	1.3101
20521.34	1.31032
20522.27	1.30941
20523.21	1.30838
20524.15	1.30792
20525.09	1.30728
20526.03	1.30625
20526.97	1.30542
20527.91	1.30421
20528.85	1.30339
20529.79	1.30336
20530.73	1.30192
20531.67	1.30185
20532.61	1.30125
20533.55	1.30066
20534.49	1.30081
20535.43	1.30051
20536.37	1.30071
20537.31	1.30041
20538.25	1.29965
20539.19	1.30107
20540.13	1.30064
20541.07	1.3011
20542.01	1.30183
20542.96	1.30257
20543.9	1.30289
20544.84	1.30329
20545.78	1.30441
20546.72	1.3037
20547.66	1.30444
20548.6	1.30478
20549.54	1.30336
20550.49	1.30264
20551.43	1.30234
20552.37	1.3008
20553.31	1.29945
20554.25	1.29882
20555.2	1.29891
20556.14	1.29728
20557.08	1.2957
20558.02	1.29499
20558.97	1.29511
20559.91	1.29406
20560.85	1.29354
20561.79	1.29383
20562.74	1.29306
20563.68	1.29263
20564.62	1.29291
20565.56	1.29292
20566.51	1.29201
20567.45	1.29279
20568.39	1.29267
20569.34	1.29213
20570.28	1.29208
20571.22	1.29228
20572.17	1.29218
20573.11	1.29253
20574.06	1.29281
20575	1.29338
20575.94	1.29382
20576.89	1.29474
20577.83	1.29611
20578.78	1.29591
20579.72	1.29765
20580.67	1.29805
20581.61	1.29985
20582.55	1.30078
20583.5	1.30348
20584.44	1.30392
20585.39	1.30465
20586.33	1.30573
20587.28	1.30642
20588.22	1.30688
20589.17	1.30661
20590.11	1.30699
20591.06	1.30586
20592.01	1.30548
20592.95	1.30365
20593.9	1.30222
20594.84	1.30108
20595.79	1.29915
20596.73	1.29776
20597.68	1.29564
20598.63	1.29372
20599.57	1.29257
20600.52	1.29044
20601.47	1.28926
20602.41	1.28741
20603.36	1.28458
20604.31	1.28325
20605.25	1.28112
20606.2	1.27929
20607.15	1.27681
20608.09	1.27458
20609.04	1.27182
20609.99	1.27019
20610.93	1.26834
20611.88	1.26561
20612.83	1.26404
20613.78	1.26253
20614.72	1.26157
20615.67	1.2594
20616.62	1.25874
20617.57	1.25744
20618.52	1.25755
20619.46	1.25757
20620.41	1.25704
20621.36	1.2567
20622.31	1.25638
20623.26	1.25565
20624.21	1.25631
20625.15	1.25515
20626.1	1.25448
20627.05	1.25518
20628	1.25406
20628.95	1.25408
20629.9	1.25337
20630.85	1.25294
20631.8	1.25219
20632.75	1.25105
20633.7	1.25021
20634.65	1.2497
20635.6	1.2486
20636.55	1.24698
20637.5	1.24592
20638.44	1.24501
20639.39	1.24454
20640.34	1.24282
20641.3	1.24235
20642.25	1.24081
20643.2	1.24015
20644.15	1.2394
20645.1	1.23867
20646.05	1.23829
20647	1.2384
20647.95	1.23837
20648.9	1.23797
20649.85	1.2387
20650.8	1.23951
20651.75	1.24013
20652.7	1.24081
20653.65	1.24172
20654.61	1.24154
20655.56	1.2423
20656.51	1.24305
20657.46	1.24369
20658.41	1.24364
20659.36	1.24456
20660.32	1.24432
20661.27	1.24507
20662.22	1.24526
20663.17	1.24542
20664.13	1.24451
20665.08	1.245
20666.03	1.24452
20666.98	1.24445
20667.93	1.24486
20668.89	1.24374
20669.84	1.24377
20670.79	1.24349
20671.75	1.24323
20672.7	1.24293
20673.65	1.24309
20674.61	1.24144
20675.56	1.24231
20676.51	1.24094
20677.47	1.24052
20678.42	1.24068
20679.37	1.24017
20680.33	1.23895
20681.28	1.23886
20682.24	1.23839
20683.19	1.23727
20684.14	1.23773
20685.1	1.23725
20686.05	1.23663
20687.01	1.23616
20687.96	1.23617
20688.92	1.23589
20689.87	1.23592
20690.82	1.23577
20691.78	1.23552
20692.73	1.23528
20693.69	1.23501
20694.64	1.2352
20695.6	1.23538
20696.56	1.23489
20697.51	1.23457
20698.47	1.23461
20699.42	1.23497
20700.38	1.23426
20701.33	1.23532
20702.29	1.23551
20703.25	1.23621
20704.2	1.23525
20705.16	1.23456
20706.11	1.23527
20707.07	1.23486
20708.03	1.23481
20708.98	1.23579
20709.94	1.23552
20710.9	1.23472
20711.85	1.23422
20712.81	1.23425
20713.77	1.234
20714.72	1.23312
20715.68	1.23233
20716.64	1.2315
20717.6	1.23088
20718.55	1.22971
20719.51	1.22864
20720.47	1.22751
20721.43	1.22685
20722.38	1.22521
20723.34	1.22451
20724.3	1.22315
20725.26	1.22293
20726.21	1.2223
20727.17	1.22108
20728.13	1.21975
20729.09	1.21942
20730.05	1.21858
20731.01	1.21722
20731.97	1.21771
20732.92	1.21619
20733.88	1.21516
20734.84	1.21458
20735.8	1.2138
20736.76	1.21198
20737.72	1.21065
20738.68	1.20916
20739.64	1.20853
20740.6	1.20718
20741.56	1.20519
20742.52	1.2043
20743.48	1.20297
20744.44	1.20203
20745.4	1.2004
20746.36	1.19979
20747.32	1.19883
20748.28	1.19874
20749.24	1.19745
20750.2	1.19738
20751.16	1.19705
20752.12	1.19653
20753.08	1.19604
20754.04	1.19519
20755	1.19483
20755.96	1.19426
20756.92	1.19368
20757.88	1.19337
20758.84	1.19315
20759.81	1.19204
20760.77	1.19173
20761.73	1.19081
20762.69	1.18933
20763.65	1.18817
20764.61	1.18739
20765.57	1.18627
20766.54	1.18511
20767.5	1.18347
20768.46	1.18183
20769.42	1.18108
20770.39	1.18062
20771.35	1.1797
20772.31	1.17873
20773.27	1.17824
20774.24	1.17771
20775.2	1.17679
20776.16	1.17687
20777.12	1.17525
20778.09	1.17571
20779.05	1.17484
20780.01	1.17487
20780.98	1.17442
20781.94	1.17375
20782.9	1.17466
20783.87	1.1739
20784.83	1.17377
20785.79	1.17429
20786.76	1.17527
20787.72	1.17478
20788.69	1.17541
20789.65	1.17558
20790.61	1.1766
20791.58	1.17649
20792.54	1.17688
20793.51	1.17708
20794.47	1.17863
20795.44	1.17937
20796.4	1.17989
20797.37	1.18017
20798.33	1.18087
20799.3	1.18108
20800.26	1.18231
20801.23	1.18285
20802.19	1.18208
20803.16	1.18245
20804.12	1.18311
20805.09	1.18297
20806.05	1.18252
20807.02	1.18235
20807.98	1.18282
20808.95	1.18203
20809.92	1.18187
20810.88	1.18021
20811.85	1.17999
20812.81	1.17921
20813.78	1.17825
20814.75	1.17698
20815.71	1.17661
20816.68	1.17571
20817.65	1.17426
20818.61	1.17424
20819.58	1.17373
20820.55	1.17321
20821.52	1.17191
20822.48	1.17176
20823.45	1.17153
20824.42	1.17105
20825.38	1.17043
20826.35	1.16955
20827.32	1.16929
20828.29	1.16954
20829.26	1.1691
20830.22	1.16848
20831.19	1.16897
20832.16	1.16912
20833.13	1.16926
20834.1	1.16819
20835.06	1.1692
20836.03	1.16812
20837	1.169
20837.97	1.16888
20838.94	1.16821
20839.91	1.16899
20840.88	1.16854
20841.84	1.16771
20842.81	1.16684
20843.78	1.16717
20844.75	1.16624
20845.72	1.16586
20846.69	1.16509
20847.66	1.16472
20848.63	1.16344
20849.6	1.1635
20850.57	1.16233
20851.54	1.16215
20852.51	1.16024
20853.48	1.15994
20854.45	1.16001
20855.42	1.15911
20856.39	1.15852
20857.36	1.15704
20858.33	1.15648
20859.3	1.15572
20860.27	1.15528
20861.24	1.15515
20862.22	1.15327
20863.19	1.15297
20864.16	1.15246
20865.13	1.15112
20866.1	1.15066
20867.07	1.14929
20868.04	1.14795
20869.01	1.14689
20869.99	1.14761
20870.96	1.14724
20871.93	1.14544
20872.9	1.14372
20873.87	1.14352
20874.85	1.14274
20875.82	1.14111
20876.79	1.14013
20877.76	1.1397
20878.74	1.1391
20879.71	1.13732
20880.68	1.13744
20881.65	1.13628
20882.63	1.13557
20883.6	1.13508
20884.57	1.13457
20885.55	1.1337
20886.52	1.13306
20887.49	1.13278
20888.47	1.13186
20889.44	1.13066
20890.41	1.13004
20891.39	1.12929
20892.36	1.12917
20893.33	1.12854
20894.31	1.12749
20895.28	1.12674
20896.26	1.12571
20897.23	1.12472
20898.2	1.12427
20899.18	1.12316
20900.15	1.12282
20901.13	1.12218
20902.1	1.12141
20903.08	1.1211
20904.05	1.12071
20905.03	1.12012
20906	1.11983
20906.98	1.11959
20907.95	1.11882
20908.93	1.11986
20909.9	1.1199
20910.88	1.11967
20911.86	1.12025
20912.83	1.11994
20913.81	1.11982
20914.78	1.1198
20915.76	1.12072
20916.73	1.11993
20917.71	1.11975
20918.69	1.11914
20919.66	1.11995
20920.64	1.11946
20921.62	1.11918
20922.59	1.11928
20923.57	1.11861
20924.55	1.11899
20925.52	1.11908
20926.5	1.11943
20927.48	1.11861
20928.46	1.11876
20929.43	1.11843
20930.41	1.11899
20931.39	1.1179
20932.36	1.11803
20933.34	1.11844
20934.32	1.11746
20935.3	1.11713
20936.28	1.11649
20937.25	1.11679
20938.23	1.11603
20939.21	1.11537
20940.19	1.11533
20941.17	1.11492
20942.15	1.11434
20943.12	1.11368
20944.1	1.1127
20945.08	1.11264
20946.06	1.11147
20947.04	1.11185
20948.02	1.11068
20949	1.10991
20949.98	1.1092
20950.96	1.10872
20951.94	1.10875
20952.92	1.10789
20953.9	1.10746
20954.87	1.10732
20955.85	1.10578
20956.83	1.10626
20957.81	1.10563
20958.79	1.10444
20959.77	1.10399
20960.76	1.10402
20961.74	1.10364
20962.72	1.10255
20963.7	1.1024
20964.68	1.10229
20965.66	1.10174
20966.64	1.10125
20967.62	1.10116
20968.6	1.10076
20969.58	1.1002
20970.56	1.10042
20971.54	1.09992
20972.53	1.10007
20973.51	1.09963
20974.49	1.09947
20975.47	1.0996
20976.45	1.10002
20977.43	1.09943
20978.42	1.09972
20979.4	1.09933
20980.38	1.09913
20981.36	1.09906
20982.35	1.09906
20983.33	1.09805
20984.31	1.09828
20985.29	1.09838
20986.28	1.09708
20987.26	1.09676
20988.24	1.09658
20989.22	1.0956
20990.21	1.09466
20991.19	1.09463
20992.17	1.09416
20993.16	1.09366
20994.14	1.09261
20995.12	1.09217
20996.11	1.09232
20997.09	1.09066
20998.08	1.09012
20999.06	1.08922
21000.04	1.08887
21001.03	1.0889
21002.01	1.08835
21003	1.08747
21003.98	1.08695
21004.96	1.08684
21005.95	1.08638
21006.93	1.0854
21007.92	1.0852
21008.9	1.08426
21009.89	1.08448
21010.87	1.08345
21011.86	1.08291
21012.84	1.08212
21013.83	1.08079
21014.81	1.08064
21015.8	1.0797
21016.79	1.07937
21017.77	1.07875
21018.76	1.07715
21019.74	1.07689
21020.73	1.07627
21021.72	1.07588
21022.7	1.075
21023.69	1.0744
21024.67	1.07393
21025.66	1.07361
21026.65	1.0725
21027.63	1.07159
21028.62	1.0712
21029.61	1.07032
21030.59	1.06951
21031.58	1.06843
21032.57	1.06884
21033.56	1.06775
21034.54	1.06632
21035.53	1.06652
21036.52	1.06581
21037.51	1.06404
21038.49	1.0645
21039.48	1.06275
21040.47	1.06354
21041.46	1.06235
21042.44	1.06246
21043.43	1.06167
21044.42	1.06141
21045.41	1.06043
21046.4	1.05993
21047.39	1.05938
21048.38	1.05889
21049.36	1.05901
21050.35	1.05769
21051.34	1.05768
21052.33	1.0571
21053.32	1.05665
21054.31	1.05675
21055.3	1.05564
21056.29	1.05592
21057.28	1.05495
21058.27	1.05463
21059.26	1.05417
21060.25	1.05447
21061.24	1.05342
21062.23	1.05363
21063.22	1.05388
21064.21	1.05371
21065.2	1.05289
21066.19	1.05339
21067.18	1.05237
21068.17	1.05293
21069.16	1.05238
21070.15	1.05165
21071.14	1.05277
21072.13	1.05201
21073.12	1.05169
21074.11	1.05139
21075.1	1.0514
21076.1	1.05052
21077.09	1.05096
21078.08	1.05063
21079.07	1.05021
21080.06	1.05058
21081.05	1.05017
21082.05	1.04984
21083.04	1.04918
21084.03	1.04953
21085.02	1.04942
21086.01	1.04924
21087.01	1.04846
21088	1.04856
21088.99	1.04864
21089.98	1.04785
21090.98	1.0471
21091.97	1.0472
21092.96	1.04646
21093.95	1.04549
21094.95	1.04562
21095.94	1.04512
21096.93	1.04521
21097.93	1.04427
21098.92	1.04369
21099.91	1.04337
21100.91	1.0435
21101.9	1.04253
21102.9	1.04216
21103.89	1.04117
21104.88	1.04114
21105.88	1.04051
21106.87	1.03951
21107.87	1.03927
21108.86	1.03838
21109.86	1.03791
21110.85	1.03796
21111.84	1.03715
21112.84	1.03563
21113.83	1.0358
21114.83	1.03474
21115.82	1.03485
21116.82	1.03434
21117.81	1.03345
21118.81	1.03294
21119.81	1.03294
21120.8	1.03165
21121.8	1.03207
21122.79	1.03138
21123.79	1.03134
21124.78	1.03097
21125.78	1.03042
21126.78	1.02987
21127.77	1.02925
21128.77	1.02884
21129.77	1.02849
21130.76	1.02883
21131.76	1.02828
21132.76	1.02661
21133.75	1.0268
21134.75	1.02672
21135.75	1.02658
21136.74	1.02569
21137.74	1.02512
21138.74	1.02472
21139.74	1.02417
21140.73	1.02355
21141.73	1.02315
21142.73	1.02324
21143.73	1.02244
21144.72	1.02205
21145.72	1.02195
21146.72	1.0216
21147.72	1.0209
21148.72	1.02106
21149.71	1.01971
21150.71	1.01887
21151.71	1.0192
21152.71	1.01844
21153.71	1.01801
21154.71	1.01783
21155.71	1.01699
21156.71	1.01632
21157.7	1.01633
21158.7	1.0155
21159.7	1.01604
21160.7	1.01537
21161.7	1.01449
21162.7	1.01419
21163.7	1.0136
21164.7	1.0131
21165.7	1.01295
21166.7	1.01269
21167.7	1.01193
21168.7	1.01235
21169.7	1.01072
21170.7	1.01021
21171.7	1.01051
21172.7	1.00957
21173.7	1.00894
21174.7	1.00917
21175.7	1.00817
21176.71	1.00751
21177.71	1.00735
21178.71	1.00732
21179.71	1.00685
21180.71	1.00568
21181.71	1.00594
21182.71	1.00472
21183.71	1.00495
21184.72	1.00447
21185.72	1.00446
21186.72	1.003
21187.72	1.00278
21188.72	1.00264
21189.73	1.0024
21190.73	1.00136
21191.73	1.00105
21192.73	1.00026
21193.74	0.999718
21194.74	0.998654
21195.74	0.998864
21196.74	0.998003
21197.75	0.997365
21198.75	0.996382
21199.75	0.996292
21200.76	0.995526
21201.76	0.994244
21202.76	0.993901
21203.77	0.993604
21204.77	0.992303
21205.77	0.991964
21206.78	0.991939
21207.78	0.991674
21208.79	0.990853
21209.79	0.990731
21210.79	0.990338
21211.8	0.990115
21212.8	0.989336
21213.81	0.989053
21214.81	0.989125
21215.82	0.988098
21216.82	0.988666
21217.83	0.988091
21218.83	0.988073
21219.84	0.988192
21220.84	0.987708
21221.85	0.986731
21222.85	0.986536
21223.86	0.98663
21224.86	0.985985
21225.87	0.985871
21226.87	0.98564
21227.88	0.985123
21228.89	0.98525
21229.89	0.983845
21230.9	0.983107
21231.9	0.982872
21232.91	0.982629
21233.92	0.982148
21234.92	0.981421
21235.93	0.981632
21236.94	0.97991
21237.94	0.980533
21238.95	0.98015
21239.96	0.979052
21240.97	0.978775
21241.97	0.978203
21242.98	0.978335
21243.99	0.978299
21244.99	0.97756
21246	0.977781
21247.01	0.976672
21248.02	0.976287
21249.03	0.976162
21250.03	0.976264
21251.04	0.97507
21252.05	0.97465
21253.06	0.974517
21254.07	0.974426
21255.07	0.973782
21256.08	0.97346
21257.09	0.972872
21258.1	0.972522
21259.11	0.972309
21260.12	0.972045
21261.13	0.971419
21262.14	0.971038
21263.15	0.971044
21264.16	0.970862
21265.17	0.970177
21266.17	0.969916
21267.18	0.969679
21268.19	0.968754
21269.2	0.968401
21270.21	0.967918
21271.22	0.967955
21272.23	0.96678
21273.24	0.966068
21274.25	0.966148
21275.26	0.96579
21276.28	0.964895
21277.29	0.964833
21278.3	0.963807
21279.31	0.964169
21280.32	0.963046
21281.33	0.962507
21282.34	0.961941
21283.35	0.9618
21284.36	0.96082
21285.37	0.960363
21286.39	0.9605
21287.4	0.960138
21288.41	0.959483
21289.42	0.958893
21290.43	0.95884
21291.44	0.958074
21292.46	0.957496
21293.47	0.957063
21294.48	0.956352
21295.49	0.95657
21296.51	0.955899
21297.52	0.955508
21298.53	0.954877
21299.54	0.954573
21300.56	0.953756
21301.57	0.953544
21302.58	0.95333
21303.6	0.95311
21304.61	0.952165
21305.62	0.951748
21306.64	0.951249
21307.65	0.951638
21308.66	0.950839
21309.68	0.951141
21310.69	0.950188
21311.7	0.950297
21312.72	0.949667
21313.73	0.948891
21314.75	0.948686
21315.76	0.947965
21316.78	0.947364
21317.79	0.947434
21318.81	0.947287
21319.82	0.946825
21320.83	0.946553
21321.85	0.945784
21322.86	0.94546
21323.88	0.945555
21324.89	0.94486
21325.91	0.944572
21326.93	0.943549
21327.94	0.943715
21328.96	0.942854
21329.97	0.942708
21330.99	0.942116
21332	0.941863
21333.02	0.94143
21334.04	0.940907
21335.05	0.940944
21336.07	0.940132
21337.09	0.939974
21338.1	0.939289
21339.12	0.939603
21340.13	0.939217
21341.15	0.938443
21342.17	0.937306
21343.19	0.93674
21344.2	0.936947
21345.22	0.936656
21346.24	0.936208
21347.25	0.936014
21348.27	0.9347
21349.29	0.934608
21350.31	0.934239
21351.33	0.934124
21352.34	0.933013
21353.36	0.932992
21354.38	0.933085
21355.4	0.932201
21356.42	0.931882
21357.43	0.931387
21358.45	0.930731
21359.47	0.929672
21360.49	0.929519
21361.51	0.929081
21362.53	0.928462
21363.55	0.928121
21364.57	0.927721
21365.58	0.92723
21366.6	0.927413
21367.62	0.92561
21368.64	0.925859
21369.66	0.925341
21370.68	0.92473
21371.7	0.924182
21372.72	0.92381
21373.74	0.922724
21374.76	0.922796
21375.78	0.921681
21376.8	0.921457
21377.82	0.921142
21378.84	0.921268
21379.86	0.919677
21380.88	0.919854
21381.9	0.918579
21382.92	0.918745
21383.95	0.918542
21384.97	0.918175
21385.99	0.917809
21387.01	0.916997
21388.03	0.916899
21389.05	0.916505
21390.07	0.915983
21391.1	0.916163
21392.12	0.915156
21393.14	0.915322
21394.16	0.91529
21395.18	0.914375
21396.2	0.914315
21397.23	0.914335
21398.25	0.913999
21399.27	0.912906
21400.29	0.913322
21401.32	0.912339
21402.34	0.912291
21403.36	0.911951
21404.39	0.912201
21405.41	0.910746
21406.43	0.911041
21407.45	0.910407
21408.48	0.909838
21409.5	0.909455
21410.52	0.909772
21411.55	0.908125
21412.57	0.908239
21413.6	0.908
21414.62	0.90748
21415.64	0.90723
21416.67	0.905694
21417.69	0.906329
21418.72	0.906474
21419.74	0.904698
21420.77	0.904372
21421.79	0.904027
21422.81	0.903587
21423.84	0.90376
21424.86	0.903007
21425.89	0.902163
21426.91	0.902189
21427.94	0.900829
21428.97	0.901003
21429.99	0.900299
21431.02	0.89985
21432.04	0.900563
21433.07	0.899409
21434.09	0.899057
21435.12	0.898611
21436.15	0.898228
21437.17	0.897611
21438.2	0.896805
21439.22	0.896675
21440.25	0.896172
21441.28	0.89582
21442.3	0.895344
21443.33	0.894602
21444.36	0.894313
21445.38	0.893718
21446.41	0.893651
21447.44	0.892634
21448.46	0.892449
21449.49	0.892116
21450.52	0.891605
21451.55	0.890888
21452.57	0.890569
21453.6	0.891019
21454.63	0.890088
21455.66	0.889716
21456.69	0.889036
21457.71	0.888578
21458.74	0.887977
21459.77	0.888407
21460.8	0.887978
21461.83	0.887643
21462.86	0.887122
21463.88	0.886137
21464.91	0.886076
21465.94	0.886335
21466.97	0.884931
21468	0.884518
21469.03	0.88429
21470.06	0.884134
21471.09	0.884209
21472.12	0.883306
21473.15	0.882505
21474.18	0.882372
21475.21	0.882017
21476.24	0.881825
21477.27	0.88136
21478.3	0.881286
21479.33	0.880403
21480.36	0.880162
21481.39	0.879299
21482.42	0.879519
21483.45	0.879411
21484.48	0.878896
21485.51	0.878209
21486.54	0.877435
21487.57	0.877574
21488.6	0.876806
21489.64	0.876764
21490.67	0.876174
21491.7	0.875638
21492.73	0.87596
21493.76	0.875238
21494.79	0.874733
21495.82	0.874918
21496.86	0.874154
21497.89	0.873558
21498.92	0.873236
21499.95	0.873407
21500.99	0.872925
21502.02	0.872569
21503.05	0.872056
21504.08	0.871702
21505.12	0.870538
21506.15	0.870686
21507.18	0.870473
21508.21	0.870337
21509.25	0.86978
21510.28	0.868933
21511.31	0.86845
21512.35	0.867999
21513.38	0.867868
21514.41	0.867574
21515.45	0.867262
21516.48	0.866357
21517.52	0.866359
21518.55	0.865462
21519.58	0.865595
21520.62	0.864574
21521.65	0.86533
21522.69	0.863843
21523.72	0.863598
21524.76	0.863568
21525.79	0.863096
21526.83	0.863225
21527.86	0.861526
21528.9	0.861735
21529.93	0.861017
21530.97	0.861552
21532	0.860845
21533.04	0.859977
21534.07	0.859823
21535.11	0.859001
21536.14	0.858535
21537.18	0.858601
21538.22	0.858016
21539.25	0.857528
21540.29	0.856813
21541.32	0.856137
21542.36	0.855444
21543.4	0.855592
21544.43	0.854703
21545.47	0.854576
21546.51	0.85465
21547.54	0.853406
21548.58	0.85299
21549.62	0.852751
21550.66	0.852211
21551.69	0.851735
21552.73	0.850952
21553.77	0.851232
21554.8	0.850263
21555.84	0.849879
21556.88	0.849298
21557.92	0.848764
21558.96	0.848348
21559.99	0.84834
21561.03	0.847257
21562.07	0.847318
21563.11	0.846969
21564.15	0.846171
21565.19	0.845553
21566.22	0.845777
21567.26	0.845333
21568.3	0.844947
21569.34	0.845363
21570.38	0.844024
21571.42	0.843912
21572.46	0.843557
21573.5	0.843351
21574.54	0.843018
21575.58	0.841854
21576.62	0.841634
21577.66	0.841137
21578.7	0.841163
21579.74	0.840378
21580.78	0.840394
21581.82	0.839926
21582.86	0.839124
21583.9	0.838978
21584.94	0.838654
21585.98	0.837837
21587.02	0.837596
21588.06	0.837423
21589.1	0.836729
21590.14	0.836364
21591.18	0.836747
21592.23	0.835418
21593.27	0.835265
21594.31	0.835197
21595.35	0.834507
21596.39	0.83464
21597.43	0.834054
21598.47	0.833234
21599.52	0.833066
21600.56	0.83267
21601.6	0.832123
21602.64	0.831449
21603.69	0.831198
21604.73	0.830944
21605.77	0.831141
21606.81	0.830197
21607.86	0.829811
21608.9	0.8285
21609.94	0.828559
21610.99	0.828641
21612.03	0.827478
21613.07	0.827267
21614.11	0.82709
21615.16	0.826943
21616.2	0.826067
21617.25	0.825821
21618.29	0.825118
21619.33	0.824852
21620.38	0.82431
21621.42	0.825136
21622.47	0.824337
21623.51	0.824015
21624.55	0.823234
21625.6	0.822891
21626.64	0.822426
21627.69	0.822132
21628.73	0.821466
21629.78	0.821376
21630.82	0.820469
21631.87	0.821145
21632.91	0.819522
21633.96	0.819702
21635	0.819762
21636.05	0.818698
21637.1	0.818938
21638.14	0.81787
21639.19	0.817787
21640.23	0.817579
21641.28	0.816816
21642.33	0.816634
21643.37	0.81586
21644.42	0.815703
21645.46	0.815269
21646.51	0.814932
21647.56	0.814322
21648.6	0.813742
21649.65	0.813632
21650.7	0.813055
21651.74	0.812812
21652.79	0.812198
21653.84	0.811674
21654.89	0.811497
21655.93	0.811185
21656.98	0.810459
21658.03	0.809608
21659.08	0.809459
21660.13	0.809318
21661.17	0.808993
21662.22	0.808473
21663.27	0.808224
21664.32	0.808138
21665.37	0.807335
21666.41	0.807025
21667.46	0.806709
21668.51	0.806424
21669.56	0.805972
21670.61	0.805629
21671.66	0.804436
21672.71	0.804583
21673.76	0.803736
21674.81	0.803843
21675.86	0.803235
21676.91	0.802896
21677.96	0.802232
21679.01	0.802307
21680.06	0.801839
21681.1	0.801623
21682.16	0.800715
21683.21	0.800997
21684.26	0.800173
21685.31	0.799753
21686.36	0.799404
21687.41	0.798897
21688.46	0.797996
21689.51	0.798264
21690.56	0.797868
21691.61	0.797832
21692.66	0.796609
21693.71	0.796426
21694.76	0.797041
21695.82	0.796
21696.87	0.795726
21697.92	0.795527
21698.97	0.794849
21700.02	0.794589
21701.07	0.794159
21702.13	0.793798
21703.18	0.793401
21704.23	0.793193
21705.28	0.792049
21706.34	0.791939
21707.39	0.79147
21708.44	0.791245
21709.49	0.790609
21710.55	0.790795
21711.6	0.789596
21712.65	0.789178
21713.71	0.789118
21714.76	0.788955
21715.81	0.788623
21716.87	0.787897
21717.92	0.787126
21718.97	0.787
21720.03	0.786717
21721.08	0.786538
21722.13	0.78565
21723.19	0.785048
21724.24	0.784993
21725.3	0.784787
21726.35	0.784242
21727.41	0.783654
21728.46	0.783329
21729.52	0.782782
21730.57	0.782895
21731.62	0.781917
21732.68	0.781948
21733.74	0.781449
21734.79	0.781168
21735.85	0.780613
21736.9	0.780495
21737.96	0.77933
21739.01	0.779183
21740.07	0.778671
21741.12	0.778463
21742.18	0.778251
21743.24	0.776981
21744.29	0.777228
21745.35	0.776708
21746.41	0.775772
21747.46	0.775562
21748.52	0.775481
21749.57	0.774426
21750.63	0.774967
21751.69	0.774208
21752.75	0.773027
21753.8	0.773039
21754.86	0.773103
21755.92	0.772252
21756.97	0.77167
21758.03	0.771813
21759.09	0.771386
21760.15	0.770864
21761.21	0.770036
21762.26	0.769916
21763.32	0.769736
21764.38	0.769546
21765.44	0.76868
21766.5	0.768763
21767.55	0.767674
21768.61	0.767396
21769.67	0.767293
21770.73	0.765708
21771.79	0.766697
21772.85	0.765732
21773.91	0.765891
21774.97	0.765108
21776.03	0.764553
21777.09	0.764772
21778.15	0.764053
21779.21	0.764108
21780.26	0.762898
21781.32	0.762982
21782.38	0.76237
21783.44	0.762198
21784.5	0.761846
21785.57	0.761194
21786.63	0.76115
21787.69	0.760818
21788.75	0.76049
21789.81	0.759474
21790.87	0.758898
21791.93	0.758402
21792.99	0.758753
21794.05	0.75778
21795.11	0.757666
21796.17	0.756987
21797.23	0.756653
21798.3	0.756325
21799.36	0.755992
21800.42	0.75559
21801.48	0.755354
21802.54	0.754817
21803.61	0.754837
21804.67	0.753896
21805.73	0.753738
21806.79	0.753468
21807.85	0.752583
21808.92	0.752552
21809.98	0.7522
21811.04	0.751272
21812.11	0.751595
21813.17	0.750942
21814.23	0.750357
21815.3	0.749686
21816.36	0.749249
21817.42	0.749124
21818.49	0.748961
21819.55	0.748555
21820.61	0.747857
21821.68	0.747801
21822.74	0.747479
21823.8	0.746861
21824.87	0.746655
21825.93	0.746071
21827	0.745572
21828.06	0.745561
21829.13	0.745223
21830.19	0.74479
21831.26	0.743788
21832.32	0.743801
21833.39	0.743089
21834.45	0.743196
21835.52	0.742578
21836.58	0.742379
21837.65	0.741854
21838.71	0.741638
21839.78	0.741424
21840.84	0.740508
21841.91	0.740696
21842.98	0.739688
21844.04	0.739077
21845.11	0.739046
21846.17	0.738702
21847.24	0.738213
21848.31	0.738307
21849.37	0.737313
21850.44	0.737353
21851.51	0.736661
21852.57	0.736315
21853.64	0.736267
21854.71	0.735318
21855.77	0.73487
21856.84	0.734574
21857.91	0.734465
21858.98	0.733667
21860.04	0.733757
21861.11	0.733714
21862.18	0.733243
21863.25	0.732479
21864.32	0.73177
21865.38	0.731435
21866.45	0.73172
21867.52	0.730921
21868.59	0.730547
21869.66	0.730197
21870.73	0.729897
21871.8	0.7293
21872.86	0.729016
21873.93	0.728454
21875	0.728445
21876.07	0.727612
21877.14	0.727419
21878.21	0.72752
21879.28	0.7271
21880.35	0.726633
21881.42	0.726284
21882.49	0.725122
21883.56	0.725377
21884.63	0.72531
21885.7	0.724248
21886.77	0.724217
21887.84	0.724048
21888.91	0.723518
21889.98	0.722715
21891.05	0.722636
21892.12	0.721697
21893.19	0.721658
21894.27	0.721383
21895.34	0.720434
21896.41	0.720481
21897.48	0.720109
21898.55	0.719725
21899.62	0.719724
21900.69	0.71887
21901.77	0.718858
21902.84	0.718486
21903.91	0.717299
21904.98	0.716925
21906.05	0.716831
21907.13	0.71629
21908.2	0.716049
21909.27	0.715867
21910.34	0.715511
21911.42	0.714638
21912.49	0.715342
21913.56	0.714118
21914.64	0.713835
21915.71	0.713406
21916.78	0.712584
21917.85	0.712402
21918.93	0.712219
21920	0.71185
21921.08	0.711534
21922.15	0.711171
21923.22	0.71123
21924.3	0.71007
21925.37	0.710017
21926.45	0.709041
21927.52	0.70867
21928.59	0.708549
21929.67	0.708103
21930.74	0.707886
21931.82	0.707082
21932.89	0.706577
21933.97	0.706376
21935.04	0.706202
21936.12	0.70516
21937.19	0.705277
21938.27	0.704758
21939.34	0.704592
21940.42	0.70381
21941.5	0.703343
21942.57	0.703129
21943.65	0.703037
21944.72	0.702345
21945.8	0.701937
21946.88	0.701568
21947.95	0.701083
21949.03	0.700923
21950.11	0.699857
21951.18	0.699754
21952.26	0.698911
21953.34	0.698997
21954.41	0.69886
21955.49	0.697799
21956.57	0.697527
21957.65	0.697223
21958.72	0.697027
21959.8	0.696553
21960.88	0.696363
21961.96	0.695949
21963.03	0.695068
21964.11	0.695534
21965.19	0.694512
21966.27	0.693757
21967.35	0.693456
21968.42	0.693387
21969.5	0.693584
21970.58	0.692839
21971.66	0.691773
21972.74	0.691509
21973.82	0.691494
21974.9	0.690886
21975.98	0.691038
21977.06	0.69034
21978.13	0.690116
21979.21	0.689885
21980.29	0.689504
21981.37	0.689163
21982.45	0.688232
21983.53	0.688344
21984.61	0.68774
21985.69	0.686976
21986.77	0.68709
21987.85	0.686504
21988.93	0.685846
21990.02	0.685668
21991.1	0.685372
21992.18	0.684959
21993.26	0.68448
21994.34	0.683917
21995.42	0.683733
21996.5	0.683598
21997.58	0.68288
21998.66	0.682455
21999.75	0.682734
22000.83	0.681437
22001.91	0.68172
22002.99	0.681547
22004.07	0.680577
22005.15	0.6803
22006.24	0.67938
22007.32	0.680002
22008.4	0.679025
22009.48	0.678839
22010.57	0.678362
22011.65	0.677967
22012.73	0.677987
22013.82	0.677491
22014.9	0.677046
22015.98	0.676117
22017.06	0.675689
22018.15	0.675157
22019.23	0.675288
22020.31	0.674976
22021.4	0.674113
22022.48	0.673531
22023.57	0.673531
22024.65	0.673594
22025.73	0.672929
22026.82	0.672174
22027.9	0.672246
22028.99	0.67182
22030.07	0.671475
22031.16	0.671103
22032.24	0.670868
22033.33	0.669596
22034.41	0.669766
22035.5	0.669128
22036.58	0.668762
22037.67	0.66815
22038.75	0.668539
22039.84	0.667721
22040.92	0.667546
22042.01	0.667296
22043.1	0.66613
22044.18	0.665924
22045.27	0.665872
22046.35	0.665676
22047.44	0.665396
22048.53	0.664879
22049.61	0.663841
22050.7	0.663895
22051.79	0.663347
22052.87	0.66309
22053.96	0.662923
22055.05	0.662356
22056.13	0.66162
22057.22	0.661891
22058.31	0.66168
22059.4	0.660468
22060.48	0.660141
22061.57	0.659874
22062.66	0.659095
22063.75	0.659481
22064.84	0.65898
22065.92	0.658316
22067.01	0.657589
22068.1	0.657547
22069.19	0.657702
22070.28	0.657094
22071.37	0.656488
22072.45	0.65622
22073.54	0.655946
22074.63	0.655611
22075.72	0.655325
22076.81	0.654111
22077.9	0.653737
22078.99	0.653983
22080.08	0.653443
22081.17	0.653399
22082.26	0.653078
22083.35	0.652122
22084.44	0.652134
22085.53	0.651476
22086.62	0.651112
22087.71	0.650737
22088.8	0.650715
22089.89	0.650195
22090.98	0.649779
22092.07	0.649134
22093.16	0.648788
22094.25	0.648136
22095.35	0.648244
22096.44	0.647925
22097.53	0.647535
22098.62	0.646919
22099.71	0.647227
22100.8	0.646311
22101.89	0.645756
22102.99	0.64549
22104.08	0.64517
22105.17	0.644545
22106.26	0.644322
22107.35	0.644151
22108.45	0.643694
22109.54	0.643324
22110.63	0.642388
22111.72	0.642428
22112.82	0.641978
22113.91	0.641641
22115	0.641205
22116.1	0.640725
22117.19	0.640849
22118.28	0.640043
22119.38	0.639433
22120.47	0.639511
22121.56	0.638877
22122.66	0.638358
22123.75	0.63779
22124.85	0.637896
22125.94	0.637736
22127.03	0.636996
22128.13	0.636624
22129.22	0.636434
22130.32	0.635738
22131.41	0.635482
22132.51	0.634972
22133.6	0.634452
22134.7	0.634297
22135.79	0.633968
22136.89	0.633562
22137.98	0.632535
22139.08	0.632459
22140.17	0.63262
22141.27	0.632132
22142.37	0.631827
22143.46	0.630953
22144.56	0.630522
22145.65	0.63031
22146.75	0.630269
22147.85	0.629869
22148.94	0.628941
22150.04	0.628491
22151.14	0.628452
22152.23	0.628239
22153.33	0.627773
22154.43	0.627368
22155.52	0.627098
22156.62	0.626862
22157.72	0.626055
22158.82	0.625926
22159.91	0.625905
22161.01	0.625066
22162.11	0.624878
22163.21	0.62379
22164.31	0.623308
22165.4	0.622458
22166.5	0.623211
22167.6	0.622893
22168.7	0.622123
22169.8	0.622124
22170.9	0.621711
22171.99	0.620966
22173.09	0.621165
22174.19	0.620792
22175.29	0.619822
22176.39	0.619397
22177.49	0.619054
22178.59	0.619094
22179.69	0.619119
22180.79	0.618289
22181.89	0.618062
22182.99	0.61734
22184.09	0.616631
22185.19	0.616694
22186.29	0.615852
22187.39	0.615777
22188.49	0.614971
22189.59	0.615725
22190.69	0.614446
22191.79	0.614394
22192.89	0.613967
22193.99	0.613521
22195.1	0.612349
22196.2	0.612856
22197.3	0.612288
22198.4	0.612087
22199.5	0.61198
22200.6	0.611456
22201.7	0.610954
22202.81	0.610731
22203.91	0.609573
22205.01	0.609485
22206.11	0.609312
22207.21	0.609095
22208.32	0.608541
22209.42	0.608274
22210.52	0.607788
22211.63	0.607316
22212.73	0.606742
22213.83	0.606634
22214.93	0.605993
22216.04	0.605925
22217.14	0.605306
22218.24	0.604258
22219.35	0.604635
22220.45	0.603782
22221.56	0.603872
22222.66	0.603767
22223.76	0.602465
22224.87	0.602327
22225.97	0.601727
22227.08	0.601977
22228.18	0.601152
22229.28	0.600733
22230.39	0.600996
22231.49	0.599909
22232.6	0.599532
22233.7	0.599111
22234.81	0.598948
22235.91	0.598134
22237.02	0.59818
22238.13	0.597018
22239.23	0.597516
22240.34	0.597062
22241.44	0.597072
22242.55	0.596294
22243.65	0.595849
22244.76	0.595184
22245.87	0.595288
22246.97	0.595044
22248.08	0.59441
22249.19	0.59391
22250.29	0.593832
22251.4	0.593056
22252.51	0.592642
22253.61	0.592463
22254.72	0.592474
22255.83	0.591772
22256.94	0.590762
22258.04	0.591366
22259.15	0.59077
22260.26	0.590595
22261.37	0.589673
22262.47	0.589903
22263.58	0.58879
22264.69	0.58857
22265.8	0.588299
22266.91	0.588027
22268.02	0.586883
22269.12	0.587633
22270.23	0.586695
22271.34	0.586508
22272.45	0.585972
22273.56	0.586004
22274.67	0.585023
22275.78	0.584902
22276.89	0.584665
22278	0.584055
22279.11	0.584383
22280.22	0.583614
22281.33	0.58285
22282.44	0.582575
22283.55	0.582181
22284.66	0.582001
22285.77	0.582107
22286.88	0.581197
22287.99	0.581138
22289.1	0.581358
22290.21	0.580542
22291.32	0.580095
22292.43	0.579639
22293.54	0.579273
22294.65	0.578958
22295.76	0.57872
22296.87	0.577615
22297.99	0.577191
22299.1	0.576965
22300.21	0.576572
22301.32	0.576132
22302.43	0.575866
22303.55	0.575226
22304.66	0.574404
22305.77	0.573908
22306.88	0.573704
22307.99	0.573287
22309.11	0.573105
22310.22	0.572624
22311.33	0.572062
22312.45	0.572258
22313.56	0.571954
22314.67	0.570725
22315.79	0.571031
22316.9	0.570083
22318.01	0.570244
22319.13	0.569999
22320.24	0.56936
22321.35	0.569512
22322.47	0.568552
22323.58	0.568926
22324.7	0.56781
22325.81	0.568003
22326.92	0.567518
22328.04	0.566898
22329.15	0.566233
22330.27	0.566326
22331.38	0.565595
22332.5	0.565471
22333.61	0.565162
22334.73	0.56509
22335.84	0.564643
22336.96	0.564175
22338.08	0.56403
22339.19	0.562959
22340.31	0.562959
22341.42	0.562278
22342.54	0.562241
22343.65	0.561804
22344.77	0.561244
22345.89	0.561082
22347	0.560725
22348.12	0.5601
22349.24	0.559694
22350.35	0.559409
22351.47	0.55921
22352.59	0.558541
22353.71	0.557731
22354.82	0.558293
22355.94	0.557765
22357.06	0.557067
22358.17	0.556159
22359.29	0.556643
22360.41	0.556177
22361.53	0.555674
22362.65	0.555195
22363.76	0.555008
22364.88	0.554436
22366	0.553999
22367.12	0.553511
22368.24	0.552944
22369.36	0.55313
22370.48	0.552803
22371.6	0.551969
22372.71	0.551486
22373.83	0.551653
22374.95	0.550483
22376.07	0.550442
22377.19	0.550522
22378.31	0.550126
22379.43	0.549272
22380.55	0.549284
22381.67	0.548963
22382.79	0.548359
22383.91	0.548225
22385.03	0.547397
22386.15	0.54722
22387.27	0.547049
22388.39	0.546443
22389.51	0.546013
22390.63	0.545831
22391.76	0.545201
22392.88	0.54484
22394	0.544743
22395.12	0.544617
22396.24	0.543456
22397.36	0.543268
22398.48	0.543518
22399.61	0.542397
22400.73	0.542209
22401.85	0.542049
22402.97	0.541423
22404.09	0.541014
22405.22	0.541214
22406.34	0.540541
22407.46	0.540215
22408.58	0.539545
22409.71	0.539671
22410.83	0.538713
22411.95	0.538755
22413.08	0.538144
22414.2	0.537996
22415.32	0.537614
22416.45	0.536408
22417.57	0.536998
22418.69	0.536484
22419.82	0.535905
22420.94	0.535752
22422.07	0.535256
22423.19	0.534622
22424.31	0.534704
22425.44	0.534233
22426.56	0.534083
22427.69	0.53309
22428.81	0.532594
22429.94	0.532854
22431.06	0.532308
22432.19	0.531851
22433.31	0.53083
22434.44	0.531205
22435.56	0.530551
22436.69	0.530369
22437.82	0.529834
22438.94	0.530075
22440.07	0.529245
22441.19	0.528866
22442.32	0.528489
22443.45	0.52802
22444.57	0.527548
22445.7	0.527787
22446.83	0.526828
22447.95	0.526288
22449.08	0.525891
22450.21	0.52606
22451.33	0.52519
22452.46	0.525533
22453.59	0.52492
22454.71	0.524291
22455.84	0.523822
22456.97	0.523934
22458.1	0.523025
22459.23	0.522851
22460.35	0.522363
22461.48	0.522334
22462.61	0.521927
22463.74	0.521603
22464.87	0.52092
22466	0.520658
22467.12	0.520016
22468.25	0.520575
22469.38	0.519319
22470.51	0.518915
22471.64	0.518313
22472.77	0.517758
22473.9	0.518129
22475.03	0.517605
22476.16	0.516928
22477.29	0.517189
22478.42	0.516017
22479.55	0.516209
22480.68	0.515307
22481.81	0.515022
22482.94	0.51443
22484.07	0.514742
22485.2	0.514285
22486.33	0.513776
22487.46	0.513804
22488.59	0.512529
22489.72	0.512766
22490.85	0.51191
22491.98	0.511771
22493.12	0.511625
22494.25	0.51152
22495.38	0.510418
22496.51	0.510606
22497.64	0.510187
22498.77	0.509611
22499.91	0.509296
22501.04	0.508817
22502.17	0.508579
22503.3	0.508616
22504.44	0.507666
22505.57	0.507011
22506.7	0.506805
22507.83	0.506746
22508.97	0.506263
22510.1	0.505854
22511.23	0.505474
22512.37	0.505611
22513.5	0.504904
22514.63	0.504393
22515.77	0.504152
22516.9	0.503892
22518.03	0.502902
22519.17	0.503048
22520.3	0.502486
22521.44	0.502012
22522.57	0.502181
22523.71	0.501406
22524.84	0.501128
22525.97	0.50151
22527.11	0.500091
22528.24	0.499984
22529.38	0.499296
22530.51	0.499348
22531.65	0.498026
22532.78	0.498652
22533.92	0.498058
22535.06	0.497511
22536.19	0.497654
22537.33	0.497195
22538.46	0.496531
22539.6	0.49622
22540.74	0.496092
22541.87	0.495496
22543.01	0.495094
22544.15	0.494586
22545.28	0.49439
22546.42	0.494175
22547.56	0.493269
22548.69	0.492743
22549.83	0.492561
22550.97	0.49235
22552.1	0.49233
22553.24	0.492025
22554.38	0.491647
22555.52	0.490932
22556.65	0.490463
22557.79	0.490056
22558.93	0.48998
22560.07	0.490056
22561.21	0.488867
22562.35	0.48923
22563.48	0.488405
22564.62	0.488166
22565.76	0.487869
22566.9	0.487508
22568.04	0.487137
22569.18	0.486314
22570.32	0.486823
22571.46	0.485684
22572.6	0.484884
22573.74	0.485043
22574.88	0.484622
22576.02	0.484026
22577.16	0.483841
22578.3	0.482945
22579.44	0.482985
22580.58	0.48272
22581.72	0.482678
22582.86	0.482418
22584	0.481749
22585.14	0.481378
22586.28	0.480722
22587.42	0.480509
22588.56	0.479897
22589.7	0.479733
22590.84	0.479305
22591.99	0.479274
22593.13	0.478663
22594.27	0.478541
22595.41	0.477523
