# DIAMOND LIGHT SOURCE
# Instrument: I20-XAS Date: Mon, 5 Aug 2013 16:14:12 BST
# Ring energy: 3.00092 GeV
# Initial ring current: 300.83517 mA
# Filling mode: Standby
# Wiggler gap selected: 20.00000 mm
#  
# Primary slits:  vertical gap= 0.12005 mm; horizontal gap= 0.80017 mm; vertical offset= 0.02498 mm; horizontal offset= 0.00002 mm
# Secondary slits:  vertical gap= 2.99900 mm; horizontal gap= 23.49900 mm; vertical offset= -0.00050 mm; horizontal offset= 0.25950 mm
# Experimental slits:  vertical gap= 1.50000 mm; horizontal gap= 4.99996 mm; vertical offset= 0.64000 mm; horizontal offset= 0.00008 mm
#  
# Optic Hutch Mirrors Coating: Rhodium
# Monochromator crystal cut: Si(111)
# Incident angle for Harmonic Rejection Mirrors: -7.92 mrad
# Harmonic rejection mirrors coating: Rhodium
# I0 Stanford sensitivity: 2 uA/V Offsets: 20 nA
# It Stanford sensitivity: 2 uA/V Offsets: 10 nA
# Iref Stanford sensitivity: 500 nA/V Offsets: 2 nA
# Atn5 (Xia) filters: Al 0.2 mm In Al 0.5 mm Out Al 1.0 mm Out Al 3.0 mm Out
# Sample stage: x: 0.00 mm y: 15.80 mm z: 4.00 mm rot: -0.00 deg roll: 0.00 deg pitch: 0.00 deg
#
# Ascii output file name: 'Cu_foil_34819_1.dat'
# Nexus output file: '/dls/i20/data/2013/cm5945-3/Cu_K_edge/nexus/34819_1.nxs'
# The XML files, ScanParameters, SampleParameters, DetectorParameters, OutputParameters
# are stored in the nexus file.
#
# Sample name: Ru_foil
# Sample description: Ruthenium metal pellet from B18 ref wheel, merge of 6 spectra
##
#
#
# Dark current intensity was collected over 1.00s. Average counts per second: I0 1047.00   It 416.00   Iref 235.00
# Dark current has been automatically removed from counts in main scan (I0,It,Iref)
#
# Energy	lnI0It          	
21914.43	0.37114167
21914.91	0.37129833
21915.38	0.37145783
21915.85	0.37130667
21916.32	0.371424
21916.79	0.37164283
21917.26	0.371126
21917.73	0.3706755
21918.2	0.370871
21918.67	0.37057233
21919.14	0.3707455
21919.61	0.370926
21920.08	0.3709315
21920.55	0.37081567
21921.02	0.37074667
21921.49	0.37093867
21921.96	0.3706005
21922.43	0.37112483
21922.9	0.37039583
21923.38	0.371069
21923.85	0.37064867
21924.32	0.37070667
21924.79	0.370311
21925.26	0.370216
21925.73	0.370158
21926.2	0.36976083
21926.67	0.3698775
21927.14	0.36941917
21927.61	0.369681
21928.08	0.36985717
21928.56	0.36995383
21929.03	0.36997967
21929.5	0.36975167
21929.97	0.3697895
21930.44	0.36964533
21930.91	0.36981667
21931.38	0.36956983
21931.85	0.36947917
21932.32	0.36969267
21932.79	0.36917833
21933.27	0.36953967
21933.74	0.36946617
21934.21	0.36948567
21934.68	0.36931483
21935.15	0.36924817
21935.62	0.370032
21936.09	0.3699715
21936.56	0.36995517
21937.04	0.3697575
21937.51	0.36940467
21937.98	0.36938033
21938.45	0.36884433
21938.92	0.3694645
21939.39	0.36891883
21939.86	0.36938383
21940.34	0.3685795
21940.81	0.36922983
21941.28	0.36874717
21941.75	0.369067
21942.22	0.36851317
21942.69	0.36851317
21943.17	0.36862517
21943.64	0.3685035
21944.11	0.36841883
21944.58	0.36879833
21945.05	0.36873617
21945.52	0.36862933
21946	0.3690175
21946.47	0.368576
21946.94	0.3688275
21947.41	0.36881033
21947.88	0.36897833
21948.35	0.3684265
21948.83	0.36856533
21949.3	0.36815083
21949.77	0.368313
21950.24	0.368701
21950.71	0.3676855
21951.19	0.36829017
21951.66	0.3681225
21952.13	0.3679125
21952.6	0.36763267
21953.07	0.36817567
21953.55	0.36754617
21954.02	0.367746
21954.49	0.36788367
21954.96	0.36815133
21955.43	0.3678895
21955.91	0.36812867
21956.38	0.367618
21956.85	0.36758583
21957.32	0.3681825
21957.8	0.3679955
21958.27	0.3676085
21958.74	0.36796167
21959.21	0.36808733
21959.69	0.367636
21960.16	0.3679615
21960.63	0.367985
21961.1	0.36783833
21961.57	0.36747467
21962.05	0.36787467
21962.52	0.36736667
21962.99	0.3674485
21963.46	0.36716783
21963.94	0.36727917
21964.41	0.36712267
21964.88	0.3670075
21965.35	0.3674155
21965.83	0.367234
21966.3	0.3676235
21966.77	0.36681467
21967.25	0.3673325
21967.72	0.36728917
21968.19	0.367084
21968.66	0.36724433
21969.14	0.36694483
21969.61	0.36723517
21970.08	0.36751483
21970.55	0.36737617
21971.03	0.36725367
21971.5	0.3672335
21971.97	0.3672435
21972.45	0.3665585
21972.92	0.36632283
21973.39	0.367009
21973.87	0.36681217
21974.34	0.36702833
21974.81	0.36680117
21975.28	0.36672417
21975.76	0.3669645
21976.23	0.366389
21976.7	0.36678667
21977.18	0.36678467
21977.65	0.3666455
21978.12	0.36641783
21978.6	0.36623067
21979.07	0.3664055
21979.54	0.36629133
21980.02	0.36648217
21980.49	0.36647467
21980.96	0.36600633
21981.44	0.36642133
21981.91	0.36620817
21982.38	0.3667755
21982.86	0.36610783
21983.33	0.36627783
21983.8	0.3661275
21984.28	0.36627267
21984.75	0.36615067
21985.22	0.36605817
21985.7	0.36642017
21986.17	0.3662635
21986.64	0.36590033
21987.12	0.3661555
21987.59	0.36645417
21988.06	0.36655983
21988.54	0.36617167
21989.01	0.36584833
21989.48	0.36578117
21989.96	0.36591733
21990.43	0.36554067
21990.91	0.36551083
21991.38	0.36578833
21991.85	0.36557133
21992.33	0.36556883
21992.8	0.36529633
21993.27	0.36530817
21993.75	0.36521667
21994.22	0.36577867
21994.7	0.36591883
21995.17	0.365793
21995.64	0.365862
21996.12	0.36580583
21996.59	0.36582783
21997.07	0.3655905
21997.54	0.36543283
21998.01	0.36567617
21998.49	0.365667
21998.96	0.3653905
21999.44	0.36565083
21999.91	0.36540517
22000.38	0.365576
22000.86	0.365432
22001.33	0.365622
22001.81	0.3651
22002.28	0.36567367
22002.75	0.36575667
22003.23	0.365202
22003.7	0.3651175
22004.18	0.36555433
22004.65	0.36593033
22005.13	0.3656455
22005.6	0.36541283
22006.07	0.36545583
22006.55	0.36521133
22007.02	0.36523683
22007.5	0.365054
22007.97	0.36508917
22008.45	0.36494367
22008.92	0.36533233
22009.4	0.36527033
22009.87	0.36573533
22010.34	0.3651935
22010.82	0.36565417
22011.29	0.364969
22011.77	0.364939
22012.24	0.365105
22012.72	0.36513383
22013.19	0.36487983
22013.67	0.36520767
22014.14	0.36529733
22014.62	0.365124
22015.09	0.36508
22015.57	0.36439367
22016.04	0.36446033
22016.52	0.36519683
22016.99	0.3649055
22017.47	0.3650365
22017.94	0.36479883
22018.42	0.36508533
22018.89	0.3649695
22019.37	0.36491717
22019.84	0.36527333
22020.32	0.36470567
22020.79	0.36501267
22021.27	0.36515983
22021.74	0.36512683
22022.22	0.365108
22022.69	0.36439717
22023.17	0.3645115
22023.64	0.36496517
22024.12	0.364332
22024.59	0.365008
22025.07	0.36519917
22025.54	0.36483067
22026.02	0.36500417
22026.49	0.3650275
22026.97	0.36478217
22027.44	0.36513267
22027.92	0.36504567
22028.39	0.36491083
22028.87	0.36499667
22029.34	0.36539733
22029.82	0.36517233
22030.3	0.364848
22030.77	0.36510567
22031.25	0.36470783
22031.72	0.36502717
22032.2	0.36532333
22032.67	0.364826
22033.15	0.36524017
22033.62	0.364936
22034.1	0.365814
22034.57	0.36507883
22035.05	0.36508217
22035.53	0.365024
22036	0.36566083
22036.48	0.36547283
22036.95	0.36572783
22037.43	0.36552267
22037.9	0.36490067
22038.38	0.36566
22038.86	0.36516817
22039.33	0.3652065
22039.81	0.36556183
22040.28	0.36567667
22040.76	0.365337
22041.24	0.3657755
22041.71	0.365716
22042.19	0.36589517
22042.66	0.36561317
22043.14	0.36511817
22043.62	0.365792
22044.09	0.3653515
22044.57	0.36594733
22045.04	0.36581917
22045.52	0.3658375
22046	0.36516283
22046.47	0.36623817
22046.95	0.36593133
22047.42	0.36651217
22047.9	0.36623883
22048.38	0.366489
22048.85	0.36609383
22049.33	0.365941
22049.81	0.36643567
22050.28	0.36631733
22050.76	0.366304
22051.23	0.3666595
22051.71	0.36653917
22052.19	0.36655367
22052.66	0.36673067
22053.14	0.36654733
22053.62	0.36632267
22054.09	0.36629983
22054.57	0.3667955
22055.05	0.36682583
22055.52	0.36654517
22056	0.36669183
22056.48	0.36692517
22056.95	0.3672945
22057.43	0.3668185
22057.91	0.3669675
22058.38	0.36719233
22058.86	0.36723583
22059.34	0.3672335
22059.81	0.367757
22060.29	0.367568
22060.77	0.36799467
22061.24	0.36794317
22061.72	0.36788433
22062.2	0.367841
22062.67	0.36819933
22063.15	0.36826767
22063.63	0.36821017
22064.1	0.368113
22064.58	0.368163
22065.06	0.3684765
22065.53	0.36883217
22066.01	0.368614
22066.49	0.36877417
22066.97	0.36902617
22067.44	0.36938
22067.92	0.369681
22068.4	0.36986617
22068.87	0.37024
22069.35	0.37001933
22069.83	0.370565
22070.31	0.370776
22070.78	0.3705925
22071.26	0.37067083
22071.74	0.37120383
22072.21	0.37151817
22072.69	0.37200217
22073.17	0.37192817
22073.65	0.37203733
22074.12	0.37206017
22074.6	0.372559
22075.08	0.372432
22075.56	0.37308917
22076.03	0.37326317
22076.51	0.3735035
22076.99	0.3739395
22077.47	0.37394317
22077.94	0.374391
22078.42	0.37480717
22078.9	0.37509017
22079.38	0.37556117
22079.85	0.375296
22080.33	0.37618217
22080.81	0.37674033
22081.29	0.37676567
22081.76	0.37694817
22082.24	0.37762417
22082.72	0.37772583
22083.2	0.37822917
22083.67	0.37858633
22084.15	0.37892617
22084.63	0.37911
22085.11	0.38024133
22085.59	0.37997433
22086.06	0.38097517
22086.54	0.381125
22087.02	0.382164
22087.5	0.38247967
22087.98	0.38272567
22088.45	0.38353233
22088.93	0.38430667
22089.41	0.38463817
22089.89	0.38514667
22090.37	0.38594883
22090.84	0.38616083
22091.32	0.38694067
22091.8	0.387597
22092.28	0.388406
22092.76	0.38934633
22093.23	0.39021067
22093.71	0.391225
22094.19	0.39191133
22094.67	0.39263567
22095.15	0.3938505
22095.63	0.39475683
22096.1	0.396002
22096.58	0.39669033
22097.06	0.39796833
22097.54	0.39869483
22098.02	0.40019817
22098.5	0.4013965
22098.97	0.40259
22099.45	0.4040695
22099.93	0.40566467
22100.41	0.4071565
22100.89	0.40930617
22101.37	0.4108655
22101.85	0.41289017
22102.32	0.41443383
22102.8	0.41612533
22103.28	0.41821767
22103.76	0.42090533
22104.24	0.423573
22104.72	0.425977
22105.2	0.42878767
22105.68	0.43195983
22106.15	0.43516567
22106.63	0.438978
22107.11	0.44316767
22107.59	0.44726283
22108.07	0.45237433
22108.55	0.45698433
22109.03	0.46297483
22109.51	0.469049
22109.98	0.47659883
22110.46	0.48408767
22110.94	0.493348
22111.42	0.50308933
22111.9	0.51538583
22112.38	0.52875783
22112.86	0.54546117
22113.34	0.56389983
22113.82	0.58506717
22114.3	0.6102585
22114.78	0.63753783
22115.25	0.66777467
22115.73	0.6997225
22116.21	0.731892
22116.69	0.76489467
22117.17	0.798705
22117.65	0.83093367
22118.13	0.864339
22118.61	0.89634267
22119.09	0.92708283
22119.57	0.955201
22120.05	0.98215833
22120.53	1.0072867
22121.01	1.02972
22121.49	1.05104
22121.96	1.0708433
22122.44	1.090375
22122.92	1.1089533
22123.4	1.128225
22123.88	1.1495817
22124.36	1.1745083
22124.84	1.2019367
22125.32	1.2324017
22125.8	1.2661617
22126.28	1.3020383
22126.76	1.33825
22127.24	1.37448
22127.72	1.411385
22128.2	1.4449433
22128.68	1.4778067
22129.16	1.5074633
22129.64	1.5346017
22130.12	1.5588483
22130.6	1.5814617
22131.08	1.602305
22131.56	1.6211083
22132.04	1.6373717
22132.52	1.6514567
22133	1.6629333
22133.48	1.67055
22133.96	1.6747683
22134.44	1.6753683
22134.92	1.6722533
22135.4	1.6664083
22135.88	1.6586983
22136.36	1.6471783
22136.84	1.63559
22137.32	1.6221117
22137.8	1.6094133
22138.28	1.5956767
22138.76	1.5846917
22139.24	1.57406
22139.72	1.5651383
22140.2	1.5586783
22140.68	1.5545367
22141.16	1.551655
22141.64	1.550495
22142.12	1.5501783
22142.6	1.5510583
22143.08	1.5526183
22143.56	1.5543733
22144.04	1.5554317
22144.52	1.5578983
22145	1.5597417
22145.48	1.5619333
22145.96	1.56422
22146.44	1.5660567
22146.93	1.5691117
22147.41	1.5720583
22147.89	1.57567
22148.37	1.58045
22148.85	1.5858
22149.33	1.59351
22149.81	1.6021
22150.29	1.6120067
22150.77	1.6222717
22151.25	1.6339383
22151.73	1.6467717
22152.21	1.66016
22152.69	1.6733467
22153.17	1.6874667
22153.66	1.7012083
22154.14	1.714205
22154.62	1.7277967
22155.1	1.7400217
22155.58	1.75255
22156.06	1.7635267
22156.54	1.7733483
22157.02	1.7822833
22157.5	1.789185
22157.98	1.7957233
22158.46	1.7982283
22158.95	1.8006083
22159.43	1.80033
22159.91	1.7970617
22160.39	1.7929483
22160.87	1.7875833
22161.35	1.7776533
22161.83	1.768
22162.31	1.7568967
22162.8	1.744715
22163.28	1.7321433
22163.76	1.7182133
22164.24	1.7047433
22164.72	1.6912533
22165.2	1.6769083
22165.68	1.66416
22166.16	1.65133
22166.65	1.638995
22167.13	1.6285783
22167.61	1.6184083
22168.09	1.6090483
22168.57	1.6016833
22169.05	1.5946033
22169.53	1.5892117
22170.02	1.5843567
22170.5	1.5808333
22170.98	1.5778533
22171.46	1.576125
22171.94	1.5759217
22172.42	1.57544
22172.91	1.5759433
22173.39	1.5762117
22173.87	1.5774183
22174.35	1.5784483
22174.83	1.5796317
22175.32	1.5818533
22175.8	1.58361
22176.28	1.5857883
22176.76	1.587125
22177.24	1.589875
22177.72	1.5917483
22178.21	1.59345
22178.69	1.59457
22179.17	1.5957317
22179.65	1.5971067
22180.13	1.5978917
22180.62	1.6001233
22181.1	1.6003533
22181.58	1.6004917
22182.06	1.600505
22182.54	1.6008883
22183.03	1.6002033
22183.51	1.6004617
22183.99	1.6004317
22184.47	1.6002883
22184.96	1.6000483
22185.44	1.60036
22185.92	1.6001583
22186.4	1.6014467
22186.88	1.6011
22187.37	1.602435
22187.85	1.6036583
22188.33	1.6053717
22188.81	1.6066617
22189.3	1.6094833
22189.78	1.6122067
22190.26	1.615625
22190.74	1.618345
22191.23	1.6218967
22191.71	1.6259217
22192.19	1.62982
22192.67	1.63416
22193.16	1.638635
22193.64	1.6433483
22194.12	1.6487067
22194.6	1.6529483
22195.09	1.6590117
22195.57	1.6638867
22196.05	1.6690967
22196.54	1.6738433
22197.02	1.6784717
22197.5	1.682705
22197.98	1.6871167
22198.47	1.6906767
22198.95	1.6940867
22199.43	1.696165
22199.92	1.69855
22200.4	1.69966
22200.88	1.6999417
22201.36	1.7003233
22201.85	1.6996117
22202.33	1.6988583
22202.81	1.6967867
22203.3	1.69552
22203.78	1.6922917
22204.26	1.6898
22204.75	1.68715
22205.23	1.683565
22205.71	1.67986
22206.19	1.6759383
22206.68	1.6718767
22207.16	1.66801
22207.64	1.6641967
22208.13	1.65971
22208.61	1.6553017
22209.09	1.6510767
22209.58	1.6471
22210.06	1.6436017
22210.54	1.6387117
22211.03	1.6363733
22211.51	1.6329383
22211.99	1.629265
22212.48	1.626935
22212.96	1.62501
22213.44	1.6225833
22213.93	1.6209567
22214.41	1.619575
22214.9	1.6187933
22215.38	1.61695
22215.86	1.6168333
22216.35	1.61574
22216.83	1.6164417
22217.31	1.61589
22217.8	1.6161717
22218.28	1.614815
22218.76	1.6155267
22219.25	1.6164117
22219.73	1.616555
22220.22	1.6161267
22220.7	1.6155883
22221.18	1.6151433
22221.67	1.6152183
22222.15	1.6148417
22222.64	1.6139483
22223.12	1.6138567
22223.6	1.6126817
22224.09	1.6126533
22224.57	1.6102333
22225.05	1.6099217
22225.54	1.609125
22226.02	1.6075433
22226.51	1.606265
22226.99	1.6056383
22227.48	1.60483
22227.96	1.60454
22228.44	1.603695
22228.93	1.6030933
22229.41	1.60322
22229.9	1.6032517
22230.38	1.602935
22230.86	1.60349
22231.35	1.6036817
22231.83	1.6048333
22232.32	1.60553
22232.8	1.6063467
22233.29	1.607155
22233.77	1.6082933
22234.25	1.6104167
22234.74	1.6105783
22235.22	1.6123217
22235.71	1.6145733
22236.19	1.61717
22236.68	1.6190417
22237.16	1.6217717
22237.65	1.6240633
22238.13	1.6268567
22238.62	1.630245
22239.1	1.63242
22239.58	1.635605
22240.07	1.6380383
22240.55	1.64065
22241.04	1.6428483
22241.52	1.6458017
22242.01	1.6480917
22242.49	1.6501133
22242.98	1.65272
22243.46	1.6545883
22243.95	1.6573083
22244.43	1.658585
22244.92	1.6605883
22245.4	1.66162
22245.89	1.66265
22246.37	1.6635867
22246.86	1.6642433
22247.34	1.6653183
22247.83	1.6655967
22248.31	1.6658967
22248.8	1.665995
22249.28	1.6653367
22249.77	1.6644467
22250.25	1.6634083
22250.74	1.6622067
22251.22	1.6604033
22251.71	1.6589167
22252.19	1.6570317
22252.68	1.6555217
22253.16	1.6525383
22253.65	1.6499633
22254.13	1.64734
22254.62	1.644295
22255.1	1.6416833
22255.59	1.638735
22256.08	1.63567
22256.56	1.631655
22257.05	1.62886
22257.53	1.62497
22258.02	1.621375
22258.5	1.61825
22258.99	1.6146417
22259.47	1.6111667
22259.96	1.6067483
22260.44	1.6033233
22260.93	1.5999233
22261.42	1.5969483
22261.9	1.592905
22262.39	1.5900717
22262.87	1.58692
22263.36	1.583965
22263.84	1.5813733
22264.33	1.5774733
22264.82	1.5750717
22265.3	1.57271
22265.79	1.5692583
22266.27	1.566885
22266.76	1.5642
22267.24	1.5620983
22267.73	1.5600033
22268.22	1.559005
22268.7	1.5574167
22269.19	1.5556333
22269.67	1.5547
22270.16	1.553065
22270.65	1.5539117
22271.13	1.5528133
22271.62	1.5526683
22272.1	1.55313
22272.59	1.5529683
22273.08	1.5533417
22273.56	1.5544
22274.05	1.5555417
22274.54	1.5569117
22275.02	1.5586367
22275.51	1.5604517
22275.99	1.5624933
22276.48	1.5649317
22276.97	1.56735
22277.45	1.56958
22277.94	1.571715
22278.43	1.5740917
22278.91	1.576765
22279.4	1.5794283
22279.88	1.5817583
22280.37	1.584135
22280.86	1.5868133
22281.34	1.5892067
22281.83	1.5916067
22282.32	1.5936367
22282.8	1.5958733
22283.29	1.59838
22283.78	1.6005167
22284.26	1.602345
22284.75	1.6045633
22285.24	1.6059333
22285.72	1.6080667
22286.21	1.6093117
22286.7	1.6105517
22287.18	1.6122183
22287.67	1.6130867
22288.16	1.6147367
22288.64	1.6157967
22289.13	1.6170483
22289.62	1.618415
22290.1	1.619345
22290.59	1.6199317
22291.08	1.6210917
22291.57	1.6214767
22292.05	1.6227733
22292.54	1.623485
22293.03	1.6239433
22293.51	1.6238367
22294	1.624705
22294.49	1.625265
22294.97	1.62509
22295.46	1.62525
22295.95	1.625405
22296.44	1.6262183
22296.92	1.6256217
22297.41	1.6256683
22297.9	1.6256817
22298.38	1.6260933
22298.87	1.6251583
22299.36	1.62543
22299.85	1.62513
22300.33	1.6251833
22300.82	1.624905
22301.31	1.625855
22301.8	1.6244067
22302.28	1.6243467
22302.77	1.6244483
22303.26	1.624585
22303.75	1.624615
22304.23	1.62428
22304.72	1.6243483
22305.21	1.62342
22305.7	1.6237817
22306.18	1.6238933
22306.67	1.623915
22307.16	1.6238217
22307.65	1.62349
22308.13	1.6238983
22308.62	1.6233517
22309.11	1.62319
22309.6	1.6231383
22310.09	1.62336
22310.57	1.6240283
22311.06	1.6235467
22311.55	1.6239367
22312.04	1.6233083
22312.52	1.623075
22313.01	1.62303
22313.5	1.623115
22313.99	1.6221833
22314.48	1.6213167
22314.96	1.62085
22315.45	1.6205733
22315.94	1.6193867
22316.43	1.6174833
22316.92	1.6170533
22317.4	1.61561
22317.89	1.6144217
22318.38	1.61264
22318.87	1.612105
22319.36	1.6096533
22319.85	1.60831
22320.33	1.6061917
22320.82	1.604195
22321.31	1.6025133
22321.8	1.6005983
22322.29	1.59874
22322.77	1.5971533
22323.26	1.594795
22323.75	1.593515
22324.24	1.5911533
22324.73	1.5895767
22325.22	1.5879667
22325.71	1.58509
22326.19	1.5838617
22326.68	1.5807667
22327.17	1.5786417
22327.66	1.5760433
22328.15	1.574785
22328.64	1.5718967
22329.12	1.5689567
22329.61	1.5672133
22330.1	1.5649583
22330.59	1.5628483
22331.08	1.5597917
22331.57	1.557865
22332.06	1.5552167
22332.55	1.5530983
22333.03	1.55074
22333.52	1.548255
22334.01	1.54662
22334.5	1.5443317
22334.99	1.5425567
22335.48	1.5407833
22335.97	1.5392383
22336.46	1.5365917
22336.95	1.53502
22337.43	1.53336
22337.92	1.531425
22338.41	1.5301317
22338.9	1.5294133
22339.39	1.52799
22339.88	1.5277717
22340.37	1.52648
22340.86	1.5256317
22341.35	1.525155
22341.84	1.5235483
22342.33	1.524065
22342.81	1.5237133
22343.3	1.5239317
22343.79	1.5237033
22344.28	1.5244983
22344.77	1.524075
22345.26	1.5242717
22345.75	1.5241317
22346.24	1.52449
22346.73	1.52542
22347.22	1.5256667
22347.71	1.5263617
22348.2	1.527045
22348.69	1.52834
22349.18	1.5293267
22349.67	1.52999
22350.16	1.53134
22350.65	1.5321217
22351.13	1.533085
22351.62	1.5335267
22352.11	1.5350533
22352.6	1.5359167
22353.09	1.5373017
22353.58	1.53792
22354.07	1.5392883
22354.56	1.5399217
22355.05	1.5415267
22355.54	1.54207
22356.03	1.5436083
22356.52	1.54434
22357.01	1.5457317
22357.5	1.546375
22357.99	1.5479733
22358.48	1.549605
22358.97	1.5503967
22359.46	1.5510133
22359.95	1.552195
22360.44	1.55358
22360.93	1.55506
22361.42	1.5567683
22361.91	1.5583983
22362.4	1.5598567
22362.89	1.5620417
22363.38	1.5636033
22363.87	1.5650617
22364.36	1.56695
22364.85	1.5686933
22365.34	1.5707533
22365.83	1.5728283
22366.32	1.574845
22366.81	1.5767183
22367.3	1.5782983
22367.79	1.57968
22368.28	1.5820267
22368.77	1.5839233
22369.26	1.5856833
22369.76	1.5870633
22370.25	1.588115
22370.74	1.5896183
22371.23	1.591155
22371.72	1.5919167
22372.21	1.5934817
22372.7	1.5945717
22373.19	1.59592
22373.68	1.5966217
22374.17	1.5977617
22374.66	1.5991183
22375.15	1.6001417
22375.64	1.6002783
22376.13	1.600965
22376.62	1.602105
22377.11	1.6025617
22377.6	1.6034833
22378.1	1.603995
22378.59	1.6048317
22379.08	1.6053383
22379.57	1.6052733
22380.06	1.6054433
22380.55	1.6063833
22381.04	1.6064867
22381.53	1.6064783
22382.02	1.6063367
22382.51	1.606555
22383	1.6067033
22383.5	1.6059183
22383.99	1.60583
22384.48	1.605225
22384.97	1.6045617
22385.46	1.604375
22385.95	1.603845
22386.44	1.6023583
22386.93	1.601735
22387.42	1.601235
22387.92	1.5996017
22388.41	1.5978117
22388.9	1.59758
22389.39	1.59572
22389.88	1.5941767
22390.37	1.592655
22390.86	1.59192
22391.36	1.5897167
22391.85	1.5887583
22392.34	1.5869733
22392.83	1.5853633
22393.32	1.5843683
22393.81	1.58185
22394.3	1.5809267
22394.8	1.5791967
22395.29	1.5783
22395.78	1.5766333
22396.27	1.575565
22396.76	1.573745
22397.25	1.5732833
22397.75	1.5715267
22398.24	1.5698667
22398.73	1.5693983
22399.22	1.5677067
22399.71	1.566885
22400.2	1.565265
22400.7	1.56498
22401.19	1.5637867
22401.68	1.5624383
22402.17	1.5615167
22402.66	1.5600683
22403.15	1.558895
22403.65	1.5578483
22404.14	1.557
22404.63	1.55648
22405.12	1.5551267
22405.61	1.5540883
22406.11	1.5525567
22406.6	1.551205
22407.09	1.5503217
22407.58	1.5497267
22408.07	1.548075
22408.57	1.5469083
22409.06	1.5456767
22409.55	1.5447533
22410.04	1.5436183
22410.54	1.5434733
22411.03	1.541115
22411.52	1.54015
22412.01	1.53908
22412.51	1.5384233
22413	1.5363167
22413.49	1.5355583
22413.98	1.5344083
22414.47	1.5331217
22414.97	1.531825
22415.46	1.530405
22415.95	1.528935
22416.44	1.5280317
22416.94	1.5267333
22417.43	1.5252533
22417.92	1.52364
22418.41	1.5223167
22418.91	1.5215283
22419.4	1.5199133
22419.89	1.5187667
22420.39	1.51689
22420.88	1.5149017
22421.37	1.51376
22421.86	1.5124283
22422.36	1.5109
22422.85	1.5096583
22423.34	1.5092133
22423.83	1.5074617
22424.33	1.5058833
22424.82	1.5056767
22425.31	1.5037783
22425.81	1.5028967
22426.3	1.5015567
22426.79	1.5008217
22427.28	1.4997433
22427.78	1.4986033
22428.27	1.4976267
22428.76	1.497485
22429.26	1.4962833
22429.75	1.4968867
22430.24	1.49585
22430.74	1.4958783
22431.23	1.4953433
22431.72	1.495725
22432.22	1.4950567
22432.71	1.49535
22433.2	1.4951067
22433.7	1.496165
22434.19	1.4962833
22434.68	1.496815
22435.18	1.4972183
22435.67	1.4977567
22436.16	1.4979833
22436.66	1.5000167
22437.15	1.500195
22437.64	1.5015033
22438.14	1.5028217
22438.63	1.5035167
22439.12	1.50487
22439.62	1.5061967
22440.11	1.5079267
22440.6	1.508945
22441.1	1.5109017
22441.59	1.5116217
22442.08	1.5131817
22442.58	1.51402
22443.07	1.51585
22443.57	1.5172683
22444.06	1.5195133
22444.55	1.5199533
22445.05	1.5215517
22445.54	1.5223433
22446.03	1.52367
22446.53	1.5245533
22447.02	1.52628
22447.52	1.5278933
22448.01	1.52963
22448.5	1.5304833
22449	1.5323117
22449.49	1.5337067
22449.99	1.5349017
22450.48	1.5359833
22450.97	1.5381217
22451.47	1.5390067
22451.96	1.54117
22452.46	1.5419267
22452.95	1.543145
22453.44	1.54523
22453.94	1.546915
22454.43	1.5485917
22454.93	1.5500483
22455.42	1.55092
22455.92	1.5521
22456.41	1.5530067
22456.9	1.554925
22457.4	1.5556117
22457.89	1.556735
22458.39	1.5578717
22458.88	1.5587883
22459.38	1.55936
22459.87	1.5607967
22460.36	1.562585
22460.86	1.5628067
22461.35	1.5638883
22461.85	1.5639483
22462.34	1.5652567
22462.84	1.565575
22463.33	1.5660467
22463.83	1.5670183
22464.32	1.5673183
22464.82	1.568225
22465.31	1.56775
22465.8	1.5680483
22466.3	1.5679017
22466.79	1.5679567
22467.29	1.56814
22467.78	1.5684817
22468.28	1.5688783
22468.77	1.568865
22469.27	1.5692217
22469.76	1.5689917
22470.26	1.5681067
22470.75	1.56932
22471.25	1.5683433
22471.74	1.5683983
22472.24	1.5684967
22472.73	1.5677117
22473.23	1.56797
22473.72	1.5674267
22474.22	1.5671317
22474.71	1.56548
22475.21	1.5649867
22475.7	1.5641683
22476.2	1.5644167
22476.69	1.5628517
22477.19	1.561905
22477.68	1.560595
22478.18	1.5590783
22478.67	1.5582683
22479.17	1.55797
22479.67	1.556005
22480.16	1.5549467
22480.66	1.5530217
22481.15	1.5521433
22481.65	1.5507333
22482.14	1.5492117
22482.64	1.547745
22483.13	1.5465433
22483.63	1.54431
22484.12	1.5430317
22484.62	1.5415933
22485.12	1.54019
22485.61	1.5398867
22486.11	1.5385083
22486.6	1.53843
22487.1	1.5368467
22487.59	1.53573
22488.09	1.5348067
22488.58	1.5342
22489.08	1.5333633
22489.58	1.53291
22490.07	1.53307
22490.57	1.5324967
22491.06	1.5318567
22491.56	1.5310933
22492.06	1.5308217
22492.55	1.5296717
22493.05	1.5303383
22493.54	1.5295883
22494.04	1.5289583
22494.54	1.5292067
22495.03	1.5287367
22495.53	1.528345
22496.02	1.528175
22496.52	1.5276783
22497.02	1.5279533
22497.51	1.5273033
22498.01	1.5271733
22498.5	1.5265883
22499	1.5259217
22499.5	1.5258717
22499.99	1.5257967
22500.49	1.5254217
22500.98	1.5253717
22501.48	1.5247033
22501.98	1.5243717
22502.47	1.52405
22502.97	1.523925
22503.47	1.523445
22503.96	1.52287
22504.46	1.5220517
22504.96	1.5218867
22505.45	1.5214983
22505.95	1.52168
22506.45	1.5200867
22506.94	1.520195
22507.44	1.5199283
22507.94	1.520355
22508.43	1.5198333
22508.93	1.51979
22509.42	1.5185683
22509.92	1.5186317
22510.42	1.5175767
22510.92	1.517595
22511.41	1.516195
22511.91	1.5161817
22512.41	1.515375
22512.9	1.51441
22513.4	1.51425
22513.9	1.5136567
22514.39	1.5127867
22514.89	1.5118417
22515.39	1.5108283
22515.88	1.510385
22516.38	1.5094517
22516.88	1.5088667
22517.37	1.5070133
22517.87	1.5064983
22518.37	1.505285
22518.87	1.5042267
22519.36	1.5029133
22519.86	1.5021133
22520.36	1.50048
22520.85	1.4998483
22521.35	1.4990467
22521.85	1.4973217
22522.35	1.4970083
22522.84	1.4960683
22523.34	1.4943733
22523.84	1.493845
22524.33	1.4929683
22524.83	1.492505
22525.33	1.49179
22525.83	1.49104
22526.32	1.4904867
22526.82	1.4906917
22527.32	1.4901183
22527.82	1.4897367
22528.31	1.4895033
22528.81	1.4892783
22529.31	1.4893483
22529.81	1.4887567
22530.3	1.4889733
22530.8	1.4890933
22531.3	1.4893633
22531.8	1.4887867
22532.29	1.4895717
22532.79	1.48963
22533.29	1.4904267
22533.79	1.4901233
22534.29	1.48965
22534.78	1.4904433
22535.28	1.4900067
22535.78	1.4910917
22536.28	1.4905717
22536.77	1.4912083
22537.27	1.4912417
22537.77	1.4923983
22538.27	1.492065
22538.77	1.4918883
22539.26	1.4923867
22539.76	1.49268
22540.26	1.492465
22540.76	1.49239
22541.26	1.4933333
22541.75	1.4930367
22542.25	1.49353
22542.75	1.4932983
22543.25	1.4940083
22543.75	1.4949283
22544.25	1.494575
22544.74	1.4942317
22545.24	1.494825
22545.74	1.4956017
22546.24	1.4959733
22546.74	1.4960433
22547.24	1.49664
22547.73	1.4968617
22548.23	1.4974033
22548.73	1.4980617
22549.23	1.49809
22549.73	1.49853
22550.23	1.4995167
22550.72	1.4998267
22551.22	1.5001567
22551.72	1.5008167
22552.22	1.5004633
22552.72	1.5006767
22553.22	1.500175
22553.72	1.5012183
22554.21	1.50137
22554.71	1.5020817
22555.21	1.5026167
22555.71	1.5036317
22556.21	1.5054717
22556.71	1.50521
22557.21	1.5058833
22557.71	1.5051733
22558.2	1.505965
22558.7	1.506665
22559.2	1.5073633
22559.7	1.5082633
22560.2	1.508835
22560.7	1.50991
22561.2	1.5103867
22561.7	1.5117233
22562.2	1.51151
22562.7	1.5134267
22563.19	1.5125883
22563.69	1.5139867
22564.19	1.5144217
22564.69	1.51563
22565.19	1.5165
22565.69	1.5167133
22566.19	1.5170133
22566.69	1.5179867
22567.19	1.5188017
22567.69	1.5194117
22568.19	1.5200633
22568.69	1.5206767
22569.18	1.52125
22569.68	1.522525
22570.18	1.52234
22570.68	1.5230467
22571.18	1.5239433
22571.68	1.523975
22572.18	1.525255
22572.68	1.5255983
22573.18	1.5261533
22573.68	1.52735
22574.18	1.5269267
22574.68	1.5278533
22575.18	1.5284483
22575.68	1.5285633
22576.18	1.5288333
22576.68	1.5294317
22577.18	1.5302917
22577.68	1.5301683
22578.18	1.5308517
22578.68	1.5310583
22579.18	1.5321683
22579.68	1.53183
22580.18	1.5321917
22580.68	1.53261
22581.18	1.5331367
22581.68	1.5331667
22582.17	1.5329533
22582.67	1.5327967
22583.17	1.5329467
22583.67	1.5332083
22584.17	1.5328417
22584.67	1.532155
22585.17	1.5318317
22585.67	1.5312217
22586.18	1.530655
22586.68	1.5305117
22587.18	1.52969
22587.68	1.528995
22588.18	1.5273833
22588.68	1.527125
22589.18	1.5264117
22589.68	1.5257633
22590.18	1.5240633
22590.68	1.52279
22591.18	1.5221617
22591.68	1.520485
22592.18	1.5197883
22592.68	1.5181417
22593.18	1.5173667
22593.68	1.5156917
22594.18	1.5148483
22594.68	1.5135167
22595.18	1.5123217
22595.68	1.5111133
22596.18	1.5099083
22596.68	1.5085883
22597.18	1.5076433
22597.68	1.506445
22598.18	1.5057117
22598.68	1.5042567
22599.19	1.5035167
22599.69	1.5025483
22600.19	1.5018867
22600.69	1.5008983
22601.19	1.5003067
22601.69	1.50005
22602.19	1.498415
22602.69	1.498355
22603.19	1.4973483
22603.69	1.49762
22604.19	1.496965
22604.69	1.4961633
22605.2	1.4965567
22605.7	1.4955333
22606.2	1.4960417
22606.7	1.4950467
22607.2	1.495505
22607.7	1.494465
22608.2	1.4943617
22608.7	1.49392
22609.2	1.4929183
22609.7	1.4937267
22610.21	1.4929983
22610.71	1.4931017
22611.21	1.493015
22611.71	1.49245
22612.21	1.4922933
22612.71	1.4917033
22613.21	1.4910333
22613.71	1.491205
22614.22	1.4908383
22614.72	1.490605
22615.22	1.4904867
22615.72	1.4896133
22616.22	1.488325
22616.72	1.4879033
22617.22	1.48726
22617.73	1.4867367
22618.23	1.4860733
22618.73	1.48526
22619.23	1.4853267
22619.73	1.4845783
22620.23	1.48315
22620.74	1.4829183
22621.24	1.4820233
22621.74	1.4818417
22622.24	1.4807283
22622.74	1.4799233
22623.24	1.479105
22623.75	1.47804
22624.25	1.4775283
22624.75	1.476605
22625.25	1.4762967
22625.75	1.4749833
22626.26	1.47448
22626.76	1.4736817
22627.26	1.4728867
22627.76	1.472475
22628.26	1.47127
22628.76	1.470705
22629.27	1.470715
22629.77	1.4700667
22630.27	1.4700867
22630.77	1.46915
22631.28	1.4681767
22631.78	1.4679417
22632.28	1.4670733
22632.78	1.46717
22633.28	1.4667733
22633.79	1.4668017
22634.29	1.4659
22634.79	1.4659417
22635.29	1.4658167
22635.8	1.465945
22636.3	1.4652833
22636.8	1.465155
22637.3	1.4652917
22637.8	1.4650167
22638.31	1.4649933
22638.81	1.46532
22639.31	1.4651133
22639.81	1.466145
22640.32	1.465565
22640.82	1.466235
22641.32	1.46633
22641.82	1.466505
22642.33	1.466215
22642.83	1.4669883
22643.33	1.4664867
22643.84	1.46709
22644.34	1.4669633
22644.84	1.46739
22645.34	1.4672617
22645.85	1.468405
22646.35	1.4681233
22646.85	1.469075
22647.35	1.46894
22647.86	1.4694517
22648.36	1.469565
22648.86	1.470315
22649.37	1.4707383
22649.87	1.4709933
22650.37	1.4714583
22650.88	1.47195
22651.38	1.472115
22651.88	1.4726333
22652.38	1.4728283
22652.89	1.4736067
22653.39	1.4738417
22653.89	1.4737383
22654.4	1.4746867
22654.9	1.4747417
22655.4	1.4754133
22655.91	1.4757417
22656.41	1.47658
22656.91	1.4767167
22657.42	1.4765983
22657.92	1.4773233
22658.42	1.4778483
22658.93	1.4782333
22659.43	1.4779867
22659.93	1.4782933
22660.44	1.4789633
22660.94	1.4795617
22661.44	1.48045
22661.95	1.4811583
22662.45	1.480445
22662.95	1.4810983
22663.46	1.4812083
22663.96	1.4817917
22664.47	1.482375
22664.97	1.4825433
22665.47	1.4829167
22665.98	1.483185
22666.48	1.4834033
22666.98	1.4839317
22667.49	1.4836767
22667.99	1.4845067
22668.49	1.4839883
22669	1.484755
22669.5	1.4849967
22670.01	1.4853267
22670.51	1.4855583
22671.01	1.48536
22671.52	1.4861617
22672.02	1.4862333
22672.53	1.4862933
22673.03	1.4866967
22673.53	1.487
22674.04	1.48632
22674.54	1.4866517
22675.05	1.4869383
22675.55	1.486725
22676.05	1.4870017
22676.56	1.48672
22677.06	1.4868617
22677.57	1.4872117
22678.07	1.4870167
22678.58	1.4864983
22679.08	1.486625
22679.58	1.4866317
22680.09	1.4861683
22680.59	1.4857317
22681.1	1.4861983
22681.6	1.4848467
22682.11	1.484915
22682.61	1.4843317
22683.11	1.4838517
22683.62	1.48368
22684.12	1.48333
22684.63	1.4827217
22685.13	1.482565
22685.64	1.48214
22686.14	1.48251
22686.65	1.482425
22687.15	1.4811333
22687.66	1.4811317
22688.16	1.4807633
22688.67	1.4808083
22689.17	1.47971
22689.67	1.4804167
22690.18	1.4797783
22690.68	1.479835
22691.19	1.4794183
22691.69	1.4798217
22692.2	1.4799617
22692.7	1.47886
22693.21	1.4792733
22693.71	1.4794767
22694.22	1.4793517
22694.72	1.4793333
22695.23	1.4795167
22695.73	1.4800517
22696.24	1.47989
22696.74	1.4804017
22697.25	1.4807
22697.75	1.4806483
22698.26	1.4805167
22698.76	1.4811567
22699.27	1.4810983
22699.77	1.4811533
22700.28	1.4817167
22700.78	1.4819817
22701.29	1.4822967
22701.8	1.4821783
22702.3	1.4829567
22702.81	1.4829883
22703.31	1.4828217
22703.82	1.4826633
22704.32	1.4827117
22704.83	1.4821833
22705.33	1.482235
22705.84	1.48175
22706.34	1.4814417
22706.85	1.48194
22707.36	1.4819317
22707.86	1.48155
22708.37	1.4814867
22708.87	1.482005
22709.38	1.4815617
22709.88	1.481595
22710.39	1.4818933
22710.89	1.4814967
22711.4	1.480925
22711.91	1.480675
22712.41	1.4798883
22712.92	1.4792667
22713.42	1.4796983
22713.93	1.4790633
22714.44	1.4788617
22714.94	1.4779333
22715.45	1.4777883
22715.95	1.477075
22716.46	1.47732
22716.96	1.4769183
22717.47	1.4768033
22717.98	1.4763417
22718.48	1.476005
22718.99	1.474825
22719.5	1.475145
22720	1.4747917
22720.51	1.4747
22721.01	1.4741483
22721.52	1.4736167
22722.03	1.4737283
22722.53	1.4731467
22723.04	1.472885
22723.54	1.472245
22724.05	1.472205
22724.56	1.471455
22725.06	1.4708167
22725.57	1.47024
22726.08	1.470005
22726.58	1.4694067
22727.09	1.4690317
22727.6	1.4687083
22728.1	1.4681183
22728.61	1.4677067
22729.12	1.46692
22729.62	1.46643
22730.13	1.466205
22730.64	1.465095
22731.14	1.4642167
22731.65	1.463685
22732.16	1.4633083
22732.66	1.46294
22733.17	1.4626617
22733.68	1.4614133
22734.18	1.46115
22734.69	1.4602733
22735.2	1.4597533
22735.7	1.459285
22736.21	1.4590967
22736.72	1.45799
22737.22	1.4576583
22737.73	1.456885
22738.24	1.4572333
22738.74	1.4565333
22739.25	1.4562817
22739.76	1.455855
22740.26	1.4556667
22740.77	1.4558017
22741.28	1.454795
22741.79	1.454455
22742.29	1.454715
22742.8	1.4544467
22743.31	1.4541583
22743.81	1.4538433
22744.32	1.453755
22744.83	1.45355
22745.34	1.4537017
22745.84	1.4533917
22746.35	1.453375
22746.86	1.45389
22747.37	1.45328
22747.87	1.4532917
22748.38	1.45355
22748.89	1.452795
22749.4	1.4526367
22749.9	1.4521267
22750.41	1.4524367
22750.92	1.4522983
22751.43	1.45251
22751.93	1.4519333
22752.44	1.4516983
22752.95	1.4512617
22753.46	1.451405
22753.96	1.4505867
22754.47	1.4506533
22754.98	1.4504117
22755.49	1.4498767
22755.99	1.4493717
22756.5	1.4492833
22757.01	1.4488683
22757.52	1.4483717
22758.03	1.44852
22758.53	1.44778
22759.04	1.4478783
22759.55	1.4468533
22760.06	1.4469583
22760.57	1.4460083
22761.07	1.4462833
22761.58	1.4456533
22762.09	1.4459983
22762.6	1.445285
22763.11	1.44526
22763.61	1.445065
22764.12	1.4448667
22764.63	1.4452633
22765.14	1.4447483
22765.65	1.4444267
22766.15	1.4443133
22766.66	1.4445167
22767.17	1.4438467
22767.68	1.4438817
22768.19	1.4437867
22768.7	1.4438783
22769.2	1.4437133
22769.71	1.4433283
22770.22	1.44359
22770.73	1.4435133
22771.24	1.4439683
22771.75	1.444415
22772.25	1.4444433
22772.76	1.4441583
22773.27	1.4443917
22773.78	1.444065
22774.29	1.4442183
22774.8	1.4444633
22775.31	1.4447133
22775.81	1.4445883
22776.32	1.4453017
22776.83	1.4454083
22777.34	1.4451633
22777.85	1.4460083
22778.36	1.446865
22778.87	1.4469917
22779.38	1.4470367
22779.88	1.4468567
22780.39	1.44754
22780.9	1.44769
22781.41	1.4476717
22781.92	1.4482533
22782.43	1.4484467
22782.94	1.4487217
22783.45	1.4493283
22783.96	1.4493617
22784.46	1.44951
22784.97	1.4498317
22785.48	1.4504483
22785.99	1.4503283
22786.5	1.4499883
22787.01	1.4502633
22787.52	1.4508367
22788.03	1.45043
22788.54	1.4510983
22789.05	1.4508717
22789.56	1.451255
22790.07	1.45147
22790.58	1.4514933
22791.08	1.45147
22791.59	1.45159
22792.1	1.4516233
22792.61	1.4524283
22793.12	1.4517533
22793.63	1.452255
22794.14	1.4529517
22794.65	1.4527583
22795.16	1.452595
22795.67	1.4519483
22796.18	1.4524
22796.69	1.452
22797.2	1.452135
22797.71	1.4521233
22798.22	1.4518633
22798.73	1.45174
22799.24	1.4516567
22799.75	1.45168
22800.26	1.4509383
22800.77	1.4510317
22801.28	1.4506433
22801.79	1.4499633
22802.3	1.4497417
22802.81	1.449615
22803.32	1.4497633
22803.83	1.4495367
22804.34	1.4490183
22804.85	1.4486633
22805.36	1.4484617
22805.87	1.44774
22806.38	1.44753
22806.89	1.446895
22807.4	1.4468467
22807.91	1.4466283
22808.42	1.4469633
22808.93	1.445795
22809.44	1.445995
22809.95	1.4460033
22810.46	1.4454367
22810.97	1.4455117
22811.48	1.4447733
22811.99	1.44455
22812.5	1.4440917
22813.01	1.4444933
22813.52	1.444305
22814.03	1.4442967
22814.54	1.4436133
22815.05	1.4436317
22815.56	1.4433567
22816.07	1.4438167
22816.58	1.4437217
22817.09	1.443195
22817.6	1.4435133
22818.11	1.4435517
22818.62	1.4431317
22819.13	1.4433167
22819.64	1.4435567
22820.15	1.4434567
22820.67	1.4433767
22821.18	1.4430733
22821.69	1.4432167
22822.2	1.4433983
22822.71	1.4432133
22823.22	1.4437517
22823.73	1.4437417
22824.24	1.4435833
22824.75	1.4439033
22825.26	1.4439783
22825.77	1.44385
22826.28	1.4437967
22826.8	1.44375
22827.31	1.4442067
22827.82	1.4442067
22828.33	1.4442733
22828.84	1.444485
22829.35	1.4446133
22829.86	1.4447933
22830.37	1.444715
22830.88	1.4446417
22831.39	1.44523
22831.91	1.4447617
22832.42	1.4452783
22832.93	1.4452033
22833.44	1.4453583
22833.95	1.4462117
22834.46	1.4464117
22834.97	1.44692
22835.49	1.4461683
22836	1.4467867
22836.51	1.4466417
22837.02	1.4465167
22837.53	1.4466617
22838.04	1.4469317
22838.55	1.4470633
22839.07	1.44693
22839.58	1.44694
22840.09	1.4478583
22840.6	1.44768
22841.11	1.447525
22841.62	1.44732
22842.13	1.447765
22842.65	1.4475383
22843.16	1.4472217
22843.67	1.4476217
22844.18	1.44738
22844.69	1.4473317
22845.21	1.447305
22845.72	1.44729
22846.23	1.4472917
22846.74	1.4472517
22847.25	1.4467133
22847.76	1.4467133
22848.28	1.4465767
22848.79	1.4464283
22849.3	1.4461233
22849.81	1.4458517
22850.32	1.4460117
22850.84	1.4451817
22851.35	1.4452183
22851.86	1.4451283
22852.37	1.4448817
22852.88	1.4452483
22853.4	1.4446333
22853.91	1.443725
22854.42	1.4436067
22854.93	1.4430083
22855.45	1.4429283
22855.96	1.4424183
22856.47	1.4414583
22856.98	1.4408883
22857.5	1.4415567
22858.01	1.440645
22858.52	1.4403033
22859.03	1.4398233
22859.54	1.43923
22860.06	1.438575
22860.57	1.4379667
22861.08	1.4374433
22861.59	1.4366883
22862.11	1.4359217
22862.62	1.436025
22863.13	1.4358267
22863.65	1.435215
22864.16	1.4348383
22864.67	1.43437
22865.18	1.4340617
22865.7	1.4330483
22866.21	1.4329533
22866.72	1.4324
22867.23	1.4318383
22867.75	1.43124
22868.26	1.4304433
22868.77	1.42993
22869.29	1.4298633
22869.8	1.4294933
22870.31	1.42822
22870.82	1.42803
22871.34	1.4272333
22871.85	1.4273567
22872.36	1.426335
22872.88	1.4263483
22873.39	1.425765
22873.9	1.4252117
22874.42	1.4247517
22874.93	1.42376
22875.44	1.4239433
22875.96	1.42336
22876.47	1.4230717
22876.98	1.42204
22877.49	1.4216983
22878.01	1.421285
22878.52	1.4215283
22879.03	1.4210717
22879.55	1.42065
22880.06	1.42024
22880.58	1.420155
22881.09	1.41923
22881.6	1.4184683
22882.12	1.41927
22882.63	1.418735
22883.14	1.4184417
22883.66	1.4184417
22884.17	1.4178717
22884.68	1.4172433
22885.2	1.4173883
22885.71	1.416695
22886.22	1.417055
22886.74	1.4168617
22887.25	1.4163117
22887.77	1.41638
22888.28	1.415745
22888.79	1.4157383
22889.31	1.41535
22889.82	1.4158267
22890.33	1.4153867
22890.85	1.4150867
22891.36	1.415245
22891.88	1.41518
22892.39	1.414705
22892.9	1.4150967
22893.42	1.4146433
22893.93	1.41504
22894.45	1.4154167
22894.96	1.4150417
22895.47	1.4143933
22895.99	1.4147117
22896.5	1.41473
22897.02	1.4148983
22897.53	1.415195
22898.04	1.4142117
22898.56	1.414455
22899.07	1.4140183
22899.59	1.4138183
22900.1	1.4136533
22900.62	1.4137333
22901.13	1.4142017
22901.64	1.4136633
22902.16	1.4138933
22902.67	1.414355
22903.19	1.41332
22903.7	1.41388
22904.22	1.4140033
22904.73	1.414445
22905.25	1.4146183
22905.76	1.41453
22906.27	1.41391
22906.79	1.4141233
22907.3	1.4147467
22907.82	1.4146933
22908.33	1.4145317
22908.85	1.4146867
22909.36	1.4150533
22909.88	1.414505
22910.39	1.4150267
22910.91	1.415045
22911.42	1.415855
22911.94	1.4158567
22912.45	1.4160217
22912.97	1.415575
22913.48	1.41596
22914	1.416315
22914.51	1.4163133
22915.03	1.416475
22915.54	1.41712
22916.06	1.4175067
22916.57	1.4177017
22917.09	1.4179383
22917.6	1.418105
22918.12	1.418665
22918.63	1.4189633
22919.15	1.4191517
22919.66	1.4190433
22920.18	1.4193417
22920.69	1.4194433
22921.21	1.419395
22921.72	1.4200083
22922.24	1.4197433
22922.75	1.419925
22923.27	1.4199667
22923.78	1.4202667
22924.3	1.4203667
22924.81	1.420445
22925.33	1.4209067
22925.85	1.4207683
22926.36	1.4204367
22926.88	1.420795
22927.39	1.420825
22927.91	1.42103
22928.42	1.4212117
22928.94	1.42093
22929.45	1.4206133
22929.97	1.4205567
22930.49	1.42136
22931	1.4209133
22931.52	1.42091
22932.03	1.4203467
22932.55	1.4201867
22933.06	1.4195617
22933.58	1.4202433
22934.1	1.419705
22934.61	1.419295
22935.13	1.41938
22935.64	1.4187933
22936.16	1.4185967
22936.68	1.418695
22937.19	1.4186367
22937.71	1.4181417
22938.22	1.4179383
22938.74	1.417995
22939.26	1.4171133
22939.77	1.417245
22940.29	1.416875
22940.8	1.4170517
22941.32	1.4165417
22941.84	1.416405
22942.35	1.4161233
22942.87	1.4158383
22943.39	1.415705
22943.9	1.4151433
22944.42	1.4152183
22944.93	1.415305
22945.45	1.4144533
22945.97	1.4146633
22946.48	1.4146033
22947	1.4147883
22947.52	1.414455
22948.03	1.4140583
22948.55	1.4137717
22949.07	1.4140883
22949.58	1.41375
22950.1	1.4135233
22950.62	1.4134117
22951.13	1.4131283
22951.65	1.413415
22952.17	1.41329
22952.68	1.41322
22953.2	1.412695
22953.72	1.412705
22954.23	1.4124483
22954.75	1.4125433
22955.27	1.4118733
22955.78	1.4116667
22956.3	1.4113717
22956.82	1.412155
22957.33	1.4118817
22957.85	1.4118067
22958.37	1.4114183
22958.88	1.4113283
22959.4	1.4109433
22959.92	1.4107467
22960.44	1.41102
22960.95	1.4104717
22961.47	1.4107167
22961.99	1.410615
22962.5	1.4103033
22963.02	1.4099383
22963.54	1.41024
22964.06	1.409975
22964.57	1.4098367
22965.09	1.409665
22965.61	1.409935
22966.12	1.4092367
22966.64	1.4088767
22967.16	1.4091633
22967.68	1.4088667
22968.19	1.4085217
22968.71	1.408345
22969.23	1.40824
22969.75	1.408435
22970.26	1.4087333
22970.78	1.4078667
22971.3	1.407975
22971.82	1.4086017
22972.33	1.4078567
22972.85	1.40763
22973.37	1.407085
22973.89	1.4075767
22974.4	1.407145
22974.92	1.4070383
22975.44	1.4070433
22975.96	1.4077633
22976.48	1.4066817
22976.99	1.4067433
22977.51	1.4068067
22978.03	1.4068017
22978.55	1.4070317
22979.06	1.4068233
22979.58	1.4063717
22980.1	1.406345
22980.62	1.40665
22981.14	1.4066217
22981.65	1.4063583
22982.17	1.4061733
22982.69	1.4068017
22983.21	1.406245
22983.73	1.4064567
22984.24	1.40651
22984.76	1.4058117
22985.28	1.4061933
22985.8	1.405925
22986.32	1.40602
22986.84	1.405775
22987.35	1.4061583
22987.87	1.4053817
22988.39	1.4057467
22988.91	1.4055883
22989.43	1.4056033
22989.95	1.40561
22990.46	1.4055867
22990.98	1.40579
22991.5	1.4054033
22992.02	1.40538
22992.54	1.404775
22993.06	1.4052367
22993.58	1.4051317
22994.09	1.4051367
22994.61	1.4049133
22995.13	1.405045
22995.65	1.405015
22996.17	1.4047733
22996.69	1.4048283
22997.21	1.4042267
22997.72	1.4042167
22998.24	1.403955
22998.76	1.4037383
22999.28	1.4033733
22999.8	1.403295
23000.32	1.4034667
23000.84	1.40341
23001.36	1.4034367
23001.88	1.4031283
23002.39	1.402595
23002.91	1.4022333
23003.43	1.4023383
23003.95	1.402
23004.47	1.4017683
23004.99	1.4016933
23005.51	1.401775
23006.03	1.4009983
23006.55	1.4010583
23007.07	1.4008767
23007.59	1.4002417
23008.1	1.4000517
23008.62	1.3996667
23009.14	1.3997317
23009.66	1.3991667
23010.18	1.3994933
23010.7	1.3990433
23011.22	1.3985167
23011.74	1.3988483
23012.26	1.3983017
23012.78	1.3984467
23013.3	1.3976983
23013.82	1.3973567
23014.34	1.3971183
23014.86	1.39652
23015.38	1.395945
23015.9	1.3962233
23016.42	1.3955583
23016.93	1.39541
23017.45	1.3952783
23017.97	1.3949967
23018.49	1.3951
23019.01	1.39501
23019.53	1.3946917
23020.05	1.3946317
23020.57	1.3940983
23021.09	1.3935967
23021.61	1.39361
23022.13	1.393205
23022.65	1.3932117
23023.17	1.392805
23023.69	1.392795
23024.21	1.3920783
23024.73	1.39232
23025.25	1.3921883
23025.77	1.39203
23026.29	1.3916033
23026.81	1.3909883
23027.33	1.391325
23027.85	1.3912383
23028.37	1.3906983
23028.89	1.3902867
23029.41	1.3903467
23029.93	1.3898583
23030.45	1.3898017
23030.97	1.3894
23031.49	1.38963
23032.01	1.3891833
23032.53	1.3890083
23033.05	1.3891617
23033.58	1.3887083
23034.1	1.3885717
23034.62	1.3882533
23035.14	1.3884233
23035.66	1.3881467
23036.18	1.3881783
23036.7	1.388235
23037.22	1.388055
23037.74	1.3879733
23038.26	1.3873217
23038.78	1.3875983
23039.3	1.3874483
23039.82	1.3871317
23040.34	1.3873767
23040.86	1.38668
23041.38	1.3868283
23041.9	1.3869833
23042.43	1.3865867
23042.95	1.386915
23043.47	1.386405
23043.99	1.38623
23044.51	1.3862883
23045.03	1.386445
23045.55	1.3858817
23046.07	1.3858667
23046.59	1.385765
23047.11	1.38566
23047.63	1.3859733
23048.16	1.38564
23048.68	1.3853883
23049.2	1.3853917
23049.72	1.38568
23050.24	1.3853033
23050.76	1.3855017
23051.28	1.3851067
23051.8	1.38526
23052.32	1.3850833
23052.85	1.38476
23053.37	1.3844083
23053.89	1.384865
23054.41	1.38462
23054.93	1.384405
23055.45	1.3842717
23055.97	1.384095
23056.5	1.384305
23057.02	1.383975
23057.54	1.3838683
23058.06	1.3836967
23058.58	1.3838983
23059.1	1.3838617
23059.62	1.3839517
23060.15	1.383255
23060.67	1.3835433
23061.19	1.3839967
23061.71	1.383395
23062.23	1.3826767
23062.75	1.38346
23063.28	1.383455
23063.8	1.3835117
23064.32	1.383
23064.84	1.3833183
23065.36	1.3828183
23065.89	1.3832633
23066.41	1.3829317
23066.93	1.3832017
23067.45	1.38311
23067.97	1.382975
23068.5	1.38323
23069.02	1.3828833
23069.54	1.3827733
23070.06	1.3828717
23070.58	1.382675
23071.11	1.3824867
23071.63	1.3827783
23072.15	1.381925
23072.67	1.3821
23073.19	1.381865
23073.72	1.3821133
23074.24	1.3816767
23074.76	1.3817967
23075.28	1.3821183
23075.81	1.38205
23076.33	1.38177
23076.85	1.3816133
23077.37	1.3816017
23077.9	1.3815567
23078.42	1.38136
23078.94	1.3812533
23079.46	1.3809933
23079.99	1.3811617
23080.51	1.3809883
23081.03	1.3810333
23081.55	1.3806317
23082.08	1.3808067
23082.6	1.380535
23083.12	1.380575
23083.64	1.3806083
23084.17	1.38017
23084.69	1.3797317
23085.21	1.3801683
23085.73	1.380215
23086.26	1.3801467
23086.78	1.379795
23087.3	1.3799917
23087.83	1.38027
23088.35	1.3798967
23088.87	1.3799617
23089.39	1.3792933
23089.92	1.38008
23090.44	1.379455
23090.96	1.3800933
23091.49	1.379595
23092.01	1.3796133
23092.53	1.3797117
23093.06	1.3797433
23093.58	1.37944
23094.1	1.37949
23094.63	1.37959
23095.15	1.379325
23095.67	1.379775
23096.19	1.3794317
23096.72	1.3796333
23097.24	1.3791483
23097.76	1.37942
23098.29	1.37946
23098.81	1.3793
23099.33	1.37941
23099.86	1.3797167
23100.38	1.3795683
23100.91	1.37959
23101.43	1.3791517
23101.95	1.3792217
23102.48	1.3791717
23103	1.3789567
23103.52	1.3787283
23104.05	1.378985
23104.57	1.3788333
23105.09	1.3784333
23105.62	1.3782667
23106.14	1.3782917
23106.67	1.3779583
23107.19	1.3779017
23107.71	1.3776983
23108.24	1.3778883
23108.76	1.3779467
23109.28	1.3775933
23109.81	1.3774317
23110.33	1.377085
23110.86	1.3768317
23111.38	1.3768767
23111.9	1.376655
23112.43	1.37682
23112.95	1.376005
23113.48	1.3761683
23114	1.3759083
23114.52	1.3761
23115.05	1.375565
23115.57	1.3754467
23116.1	1.37562
23116.62	1.3751267
23117.14	1.3751583
23117.67	1.3750083
23118.19	1.374885
23118.72	1.37429
23119.24	1.3744583
23119.77	1.37425
23120.29	1.374125
23120.82	1.3742217
23121.34	1.373655
23121.86	1.3734967
23122.39	1.3732367
23122.91	1.373315
23123.44	1.3730833
23123.96	1.3733267
23124.49	1.37292
23125.01	1.372645
23125.54	1.3730017
23126.06	1.372715
23126.59	1.3721717
23127.11	1.3722083
23127.63	1.3719833
23128.16	1.37193
23128.68	1.37213
23129.21	1.3716583
23129.73	1.371915
23130.26	1.3718133
23130.78	1.37159
23131.31	1.3711667
23131.83	1.3721467
23132.36	1.371295
23132.88	1.371425
23133.41	1.3716317
23133.93	1.37104
23134.46	1.3708383
23134.98	1.3707667
23135.51	1.3706033
23136.03	1.3703783
23136.56	1.3707483
23137.08	1.370285
23137.61	1.3703933
23138.13	1.3701817
23138.66	1.37009
23139.18	1.3700483
23139.71	1.3701883
23140.23	1.3696017
23140.76	1.3698817
23141.29	1.3696767
23141.81	1.3699817
23142.34	1.369715
23142.86	1.3695383
23143.39	1.36933
23143.91	1.3692217
23144.44	1.369405
23144.96	1.3688233
23145.49	1.3690517
23146.01	1.3692033
23146.54	1.3689867
23147.07	1.3683033
23147.59	1.3681417
23148.12	1.3680867
23148.64	1.3684533
23149.17	1.3675317
23149.69	1.3679267
23150.22	1.3678667
23150.75	1.36791
23151.27	1.36756
23151.8	1.367405
23152.32	1.36748
23152.85	1.36735
23153.37	1.36746
23153.9	1.3674
23154.43	1.3670633
23154.95	1.36687
23155.48	1.36713
23156	1.3664383
23156.53	1.3668767
23157.06	1.366625
23157.58	1.366805
23158.11	1.3660083
23158.63	1.3661667
23159.16	1.3660583
23159.69	1.3653583
23160.21	1.36523
23160.74	1.3655033
23161.27	1.3652433
23161.79	1.36537
23162.32	1.3650783
23162.84	1.3648567
23163.37	1.36473
23163.9	1.3644417
23164.42	1.364335
23164.95	1.3635467
23165.48	1.3634583
23166	1.3636
23166.53	1.3632767
23167.06	1.3632517
23167.58	1.3634033
23168.11	1.3626333
23168.64	1.3626267
23169.16	1.3621733
23169.69	1.3619917
23170.22	1.3619417
23170.74	1.3615867
23171.27	1.361775
23171.8	1.3609417
23172.32	1.3610633
23172.85	1.361555
23173.38	1.3613417
23173.9	1.3606883
23174.43	1.3603283
23174.96	1.360465
23175.48	1.3596933
23176.01	1.3600417
23176.54	1.3600217
23177.06	1.35953
23177.59	1.3595617
23178.12	1.35901
23178.65	1.3589517
23179.17	1.3587167
23179.7	1.3588517
23180.23	1.3589867
23180.75	1.3585317
23181.28	1.3585833
23181.81	1.3579267
23182.34	1.35785
23182.86	1.3577367
23183.39	1.3575183
23183.92	1.3579
23184.44	1.357475
23184.97	1.3573617
23185.5	1.3573
23186.03	1.3569717
23186.55	1.356765
23187.08	1.3568833
23187.61	1.3562133
23188.14	1.3562683
23188.66	1.3560967
23189.19	1.3560983
23189.72	1.355875
23190.25	1.355695
23190.77	1.3552417
23191.3	1.3553633
23191.83	1.354725
23192.36	1.3551333
23192.89	1.3546933
23193.41	1.354795
23193.94	1.3546117
23194.47	1.3545117
23195	1.3544683
23195.52	1.35429
23196.05	1.3537833
23196.58	1.35394
23197.11	1.3536517
23197.64	1.3538
23198.16	1.35369
23198.69	1.3535617
23199.22	1.3533983
23199.75	1.353045
23200.28	1.3532583
23200.8	1.35352
23201.33	1.3530367
23201.86	1.3530033
23202.39	1.3530633
23202.92	1.3530417
23203.44	1.35268
23203.97	1.3524917
23204.5	1.3527467
23205.03	1.352545
23205.56	1.3521583
23206.09	1.3519733
23206.61	1.3521983
23207.14	1.3520217
23207.67	1.3519433
23208.2	1.3515583
23208.73	1.3516467
23209.26	1.3511217
23209.78	1.3511833
23210.31	1.3508333
23210.84	1.3509567
23211.37	1.350945
23211.9	1.3511283
23212.43	1.3507533
23212.96	1.350565
23213.48	1.3508267
23214.01	1.3507217
23214.54	1.3503933
23215.07	1.3501183
23215.6	1.349835
23216.13	1.3498333
23216.66	1.3502367
23217.19	1.3499267
23217.71	1.3497967
23218.24	1.3494367
23218.77	1.34954
23219.3	1.349395
23219.83	1.3496283
23220.36	1.3492117
23220.89	1.3490733
23221.42	1.34891
23221.95	1.3486233
23222.48	1.3488117
23223	1.348445
23223.53	1.3482833
23224.06	1.348565
23224.59	1.34869
23225.12	1.3484783
23225.65	1.3478683
23226.18	1.3482683
23226.71	1.348145
23227.24	1.348435
23227.77	1.3479817
23228.3	1.3475367
23228.83	1.3476933
23229.36	1.34749
23229.89	1.3472917
23230.41	1.3468533
23230.94	1.3470483
23231.47	1.3465817
23232	1.3472233
23232.53	1.34669
23233.06	1.3467733
23233.59	1.34659
23234.12	1.3467217
23234.65	1.3463733
23235.18	1.3464383
23235.71	1.3459517
23236.24	1.346005
23236.77	1.3458133
23237.3	1.345685
23237.83	1.345895
23238.36	1.3458767
23238.89	1.3459667
23239.42	1.34564
23239.95	1.3454233
23240.48	1.3455683
23241.01	1.34537
23241.54	1.3447983
23242.07	1.3456817
23242.6	1.34538
23243.13	1.3448633
23243.66	1.345465
23244.19	1.344875
23244.72	1.345035
23245.25	1.34496
23245.78	1.344615
23246.31	1.3446133
23246.84	1.34494
23247.37	1.3445167
23247.9	1.34449
23248.43	1.34429
23248.96	1.3446367
23249.49	1.3446467
23250.02	1.3440417
23250.55	1.3441083
23251.08	1.3442717
23251.61	1.34396
23252.14	1.3435833
23252.67	1.3439267
23253.2	1.3436783
23253.73	1.3437533
23254.26	1.3436617
23254.8	1.3434367
23255.33	1.343015
23255.86	1.3432617
23256.39	1.3429033
23256.92	1.343265
23257.45	1.343215
23257.98	1.3429533
23258.51	1.3424017
23259.04	1.3424917
23259.57	1.3424983
23260.1	1.3424283
23260.63	1.342095
23261.16	1.342395
23261.69	1.3420767
23262.23	1.3422283
23262.76	1.3420833
23263.29	1.3419667
23263.82	1.3419917
23264.35	1.3417767
23264.88	1.34145
23265.41	1.341515
23265.94	1.3418317
23266.47	1.3415567
23267.01	1.3416783
23267.54	1.3411967
23268.07	1.3415
23268.6	1.3413233
23269.13	1.3409283
23269.66	1.3411067
23270.19	1.341135
23270.72	1.3408817
23271.26	1.3413833
23271.79	1.3410417
23272.32	1.3409433
23272.85	1.3405217
23273.38	1.3407867
23273.91	1.3404267
23274.44	1.3401183
23274.98	1.3400383
23275.51	1.340305
23276.04	1.3397517
23276.57	1.33959
23277.1	1.33945
23277.63	1.3397233
23278.16	1.3397733
23278.7	1.339585
23279.23	1.3397383
23279.76	1.3392867
23280.29	1.3394467
23280.82	1.3391767
23281.36	1.33926
23281.89	1.339365
23282.42	1.3387283
23282.95	1.3388767
23283.48	1.3387367
23284.01	1.338805
23284.55	1.3387733
23285.08	1.33847
23285.61	1.3385667
23286.14	1.3384383
23286.67	1.3383083
23287.21	1.3381233
23287.74	1.3378967
23288.27	1.33744
23288.8	1.3372933
23289.33	1.3375483
23289.87	1.3375083
23290.4	1.3374233
23290.93	1.33743
23291.46	1.3369233
23292	1.33683
23292.53	1.3370967
23293.06	1.3368717
23293.59	1.3365417
23294.13	1.33631
23294.66	1.3361067
23295.19	1.3365483
23295.72	1.33615
23296.26	1.3354317
23296.79	1.3359167
23297.32	1.3351983
23297.85	1.3351817
23298.39	1.3351267
23298.92	1.335335
23299.45	1.3350533
23299.98	1.3347683
23300.52	1.33468
23301.05	1.3348167
23301.58	1.3340683
23302.11	1.3343967
23302.65	1.334165
23303.18	1.33383
23303.71	1.333755
23304.25	1.3338617
23304.78	1.33337
23305.31	1.3333233
23305.84	1.3331583
23306.38	1.3330233
23306.91	1.3326283
23307.44	1.3328267
23307.98	1.3326317
23308.51	1.3322133
23309.04	1.3323983
23309.58	1.33246
23310.11	1.3322267
23310.64	1.33194
23311.18	1.3317283
23311.71	1.3320067
23312.24	1.331665
23312.77	1.33154
23313.31	1.3312517
23313.84	1.3311667